number_of_fixational_trials,size,trials_2.thisRepN,trials_2.thisTrialN,trials_2.thisN,trials_2.thisIndex,trials.thisRepN,trials.thisTrialN,trials.thisN,trials.thisIndex,trials_3.thisRepN,trials_3.thisTrialN,trials_3.thisN,trials_3.thisIndex,answer.keys,answer.rt,participant,gender,age,frameRate,expName,date,
1,"[2.6, 2.6]",0,0,0,0,,,,,0,0,0,0,down,8.05866215085,AS,m,26,60.0029843747,Set,2017_03_17_1557,
1,"[2.6, 2.6]",0,0,0,0,,,,,1,0,1,0,down,0.79211114269,AS,m,26,60.0029843747,Set,2017_03_17_1557,
10,"[2.67, 2.67]",0,1,1,39,,,,,0,0,0,0,down,7.27540144948,AS,m,26,60.0029843747,Set,2017_03_17_1557,
10,"[2.67, 2.67]",0,1,1,39,,,,,1,0,1,0,down,1.17528144885,AS,m,26,60.0029843747,Set,2017_03_17_1557,
3,"[2.67, 2.67]",0,2,2,32,,,,,0,0,0,0,down,2.83364122969,AS,m,26,60.0029843747,Set,2017_03_17_1557,
3,"[2.67, 2.67]",0,2,2,32,,,,,1,0,1,0,left,1.35874465129,AS,m,26,60.0029843747,Set,2017_03_17_1557,
3,"[2.67, 2.67]",0,2,2,32,,,,,2,0,2,0,down,1.39213522176,AS,m,26,60.0029843747,Set,2017_03_17_1557,
3,"[2.67, 2.67]",0,2,2,32,,,,,3,0,3,0,down,1.30005565819,AS,m,26,60.0029843747,Set,2017_03_17_1557,
6,"[2.63, 2.63]",0,3,3,25,,,,,0,0,0,0,down,1.12541842325,AS,m,26,60.0029843747,Set,2017_03_17_1557,
6,"[2.63, 2.63]",0,3,3,25,,,,,1,0,1,0,down,1.12527671198,AS,m,26,60.0029843747,Set,2017_03_17_1557,
6,"[2.63, 2.63]",0,3,3,25,,,,,2,0,2,0,right,1.55886425718,AS,m,26,60.0029843747,Set,2017_03_17_1557,
6,"[2.63, 2.63]",0,3,3,25,,,,,3,0,3,0,down,0.808855572924,AS,m,26,60.0029843747,Set,2017_03_17_1557,
6,"[2.63, 2.63]",0,3,3,25,,,,,4,0,4,0,right,0.708831888589,AS,m,26,60.0029843747,Set,2017_03_17_1557,
6,"[2.63, 2.63]",0,3,3,25,,,,,5,0,5,0,down,0.558769125101,AS,m,26,60.0029843747,Set,2017_03_17_1557,
6,"[2.63, 2.63]",0,3,3,25,,,,,6,0,6,0,down,4.46696785246,AS,m,26,60.0029843747,Set,2017_03_17_1557,
6,"[2.63, 2.63]",0,3,3,25,,,,,7,0,7,0,right,1.40878491466,AS,m,26,60.0029843747,Set,2017_03_17_1557,
6,"[2.63, 2.63]",0,3,3,25,,,,,8,0,8,0,right,0.575438160201,AS,m,26,60.0029843747,Set,2017_03_17_1557,
6,"[2.63, 2.63]",0,3,3,25,,,,,9,0,9,0,down,0.616898773151,AS,m,26,60.0029843747,Set,2017_03_17_1557,
6,"[2.63, 2.63]",0,3,3,25,,,,,10,0,10,0,down,0.540792714698,AS,m,26,60.0029843747,Set,2017_03_17_1557,
6,"[2.63, 2.63]",0,3,3,25,,,,,11,0,11,0,right,0.583578466202,AS,m,26,60.0029843747,Set,2017_03_17_1557,
6,"[2.63, 2.63]",0,3,3,25,,,,,12,0,12,0,left,0.808814520076,AS,m,26,60.0029843747,Set,2017_03_17_1557,
6,"[2.63, 2.63]",0,3,3,25,,,,,13,0,13,0,down,0.733453333965,AS,m,26,60.0029843747,Set,2017_03_17_1557,
6,"[2.63, 2.63]",0,3,3,25,,,,,14,0,14,0,right,0.700228553835,AS,m,26,60.0029843747,Set,2017_03_17_1557,
6,"[2.63, 2.63]",0,3,3,25,,,,,15,0,15,0,down,0.983546097611,AS,m,26,60.0029843747,Set,2017_03_17_1557,
6,"[2.63, 2.63]",0,3,3,25,,,,,16,0,16,0,down,0.508790441002,AS,m,26,60.0029843747,Set,2017_03_17_1557,
6,"[2.63, 2.63]",0,3,3,25,,,,,17,0,17,0,right,0.558766361928,AS,m,26,60.0029843747,Set,2017_03_17_1557,
6,"[2.63, 2.63]",0,3,3,25,,,,,18,0,18,0,left,0.683596624193,AS,m,26,60.0029843747,Set,2017_03_17_1557,
6,"[2.63, 2.63]",0,3,3,25,,,,,19,0,19,0,right,0.725582634645,AS,m,26,60.0029843747,Set,2017_03_17_1557,
6,"[2.63, 2.63]",0,3,3,25,,,,,20,0,20,0,down,0.392198379991,AS,m,26,60.0029843747,Set,2017_03_17_1557,
6,"[2.63, 2.63]",0,3,3,25,,,,,21,0,21,0,down,0.52551868694,AS,m,26,60.0029843747,Set,2017_03_17_1557,
6,"[2.63, 2.63]",0,3,3,25,,,,,22,0,22,0,right,0.525272764593,AS,m,26,60.0029843747,Set,2017_03_17_1557,
6,"[2.63, 2.63]",0,3,3,25,,,,,23,0,23,0,right,0.458792414697,AS,m,26,60.0029843747,Set,2017_03_17_1557,
6,"[2.63, 2.63]",0,3,3,25,,,,,24,0,24,0,down,0.708820835899,AS,m,26,60.0029843747,Set,2017_03_17_1557,
6,"[2.63, 2.63]",0,3,3,25,,,,,25,0,25,0,down,0.392150616582,AS,m,26,60.0029843747,Set,2017_03_17_1557,
3,"[2.6, 2.6]",0,4,4,2,,,,,0,0,0,0,left,0.450284606761,AS,m,26,60.0029843747,Set,2017_03_17_1557,
3,"[2.6, 2.6]",0,4,4,2,,,,,1,0,1,0,down,0.592146274454,AS,m,26,60.0029843747,Set,2017_03_17_1557,
3,"[2.6, 2.6]",0,4,4,2,,,,,2,0,2,0,down,0.55881688851,AS,m,26,60.0029843747,Set,2017_03_17_1557,
6,"[2.7, 2.7]",0,5,5,15,,,,,0,0,0,0,down,1.13355793978,AS,m,26,60.0029843747,Set,2017_03_17_1557,
6,"[2.7, 2.7]",0,5,5,15,,,,,1,0,1,0,down,0.783588334675,AS,m,26,60.0029843747,Set,2017_03_17_1557,
1,"[2.63, 2.63]",0,6,6,20,,,,,0,0,0,0,left,0.792137984937,AS,m,26,60.0029843747,Set,2017_03_17_1557,
1,"[2.63, 2.63]",0,6,6,20,,,,,1,0,1,0,left,0.583637282302,AS,m,26,60.0029843747,Set,2017_03_17_1557,
1,"[2.63, 2.63]",0,6,6,20,,,,,2,0,2,0,left,0.558801098953,AS,m,26,60.0029843747,Set,2017_03_17_1557,
1,"[2.63, 2.63]",0,6,6,20,,,,,3,0,3,0,left,0.483713466913,AS,m,26,60.0029843747,Set,2017_03_17_1557,
1,"[2.63, 2.63]",0,6,6,20,,,,,4,0,4,0,left,0.483620308528,AS,m,26,60.0029843747,Set,2017_03_17_1557,
1,"[2.63, 2.63]",0,6,6,20,,,,,5,0,5,0,left,0.766918904836,AS,m,26,60.0029843747,Set,2017_03_17_1557,
1,"[2.63, 2.63]",0,6,6,20,,,,,6,0,6,0,down,0.492172721962,AS,m,26,60.0029843747,Set,2017_03_17_1557,
1,"[2.63, 2.63]",0,6,6,20,,,,,7,0,7,0,down,0.342140748109,AS,m,26,60.0029843747,Set,2017_03_17_1557,
3,"[2.7, 2.7]",0,7,7,12,,,,,0,0,0,0,left,1.0587975463,AS,m,26,60.0029843747,Set,2017_03_17_1557,
3,"[2.7, 2.7]",0,7,7,12,,,,,1,0,1,0,down,0.725462239275,AS,m,26,60.0029843747,Set,2017_03_17_1557,
3,"[2.7, 2.7]",0,7,7,12,,,,,2,0,2,0,down,0.592124563814,AS,m,26,60.0029843747,Set,2017_03_17_1557,
7,"[2.67, 2.67]",0,8,8,36,,,,,0,0,0,0,down,1.11690785215,AS,m,26,60.0029843747,Set,2017_03_17_1557,
7,"[2.67, 2.67]",0,8,8,36,,,,,1,0,1,0,left,0.60878017779,AS,m,26,60.0029843747,Set,2017_03_17_1557,
7,"[2.67, 2.67]",0,8,8,36,,,,,2,0,2,0,left,0.608782940963,AS,m,26,60.0029843747,Set,2017_03_17_1557,
7,"[2.67, 2.67]",0,8,8,36,,,,,3,0,3,0,left,1.12544881815,AS,m,26,60.0029843747,Set,2017_03_17_1557,
7,"[2.67, 2.67]",0,8,8,36,,,,,4,0,4,0,down,0.442153774494,AS,m,26,60.0029843747,Set,2017_03_17_1557,
7,"[2.67, 2.67]",0,8,8,36,,,,,5,0,5,0,down,0.475432633856,AS,m,26,60.0029843747,Set,2017_03_17_1557,
7,"[2.67, 2.67]",0,8,8,36,,,,,6,0,6,0,left,0.475474476181,AS,m,26,60.0029843747,Set,2017_03_17_1557,
7,"[2.67, 2.67]",0,8,8,36,,,,,7,0,7,0,down,0.442104826868,AS,m,26,60.0029843747,Set,2017_03_17_1557,
7,"[2.67, 2.67]",0,8,8,36,,,,,8,0,8,0,left,0.550190658898,AS,m,26,60.0029843747,Set,2017_03_17_1557,
7,"[2.67, 2.67]",0,8,8,36,,,,,9,0,9,0,left,0.433577676725,AS,m,26,60.0029843747,Set,2017_03_17_1557,
7,"[2.67, 2.67]",0,8,8,36,,,,,10,0,10,0,down,0.375531713325,AS,m,26,60.0029843747,Set,2017_03_17_1557,
7,"[2.67, 2.67]",0,8,8,36,,,,,11,0,11,0,left,0.458913204806,AS,m,26,60.0029843747,Set,2017_03_17_1557,
7,"[2.67, 2.67]",0,8,8,36,,,,,12,0,12,0,down,0.558861099269,AS,m,26,60.0029843747,Set,2017_03_17_1557,
7,"[2.67, 2.67]",0,8,8,36,,,,,13,0,13,0,left,0.466879036205,AS,m,26,60.0029843747,Set,2017_03_17_1557,
7,"[2.67, 2.67]",0,8,8,36,,,,,14,0,14,0,left,0.375464607709,AS,m,26,60.0029843747,Set,2017_03_17_1557,
7,"[2.67, 2.67]",0,8,8,36,,,,,15,0,15,0,left,0.292128511203,AS,m,26,60.0029843747,Set,2017_03_17_1557,
7,"[2.67, 2.67]",0,8,8,36,,,,,16,0,16,0,left,0.292201537903,AS,m,26,60.0029843747,Set,2017_03_17_1557,
7,"[2.67, 2.67]",0,8,8,36,,,,,17,0,17,0,down,0.408813730599,AS,m,26,60.0029843747,Set,2017_03_17_1557,
7,"[2.67, 2.67]",0,8,8,36,,,,,18,0,18,0,down,0.475435791767,AS,m,26,60.0029843747,Set,2017_03_17_1557,
2,"[2.6, 2.6]",0,9,9,1,,,,,0,0,0,0,down,1.02546776562,AS,m,26,60.0029843747,Set,2017_03_17_1557,
2,"[2.6, 2.6]",0,9,9,1,,,,,1,0,1,0,left,0.67544960763,AS,m,26,60.0029843747,Set,2017_03_17_1557,
2,"[2.6, 2.6]",0,9,9,1,,,,,2,0,2,0,down,0.533588334675,AS,m,26,60.0029843747,Set,2017_03_17_1557,
2,"[2.6, 2.6]",0,9,9,1,,,,,3,0,3,0,down,0.392245353923,AS,m,26,60.0029843747,Set,2017_03_17_1557,
9,"[2.7, 2.7]",0,10,10,18,,,,,0,0,0,0,right,0.858855967663,AS,m,26,60.0029843747,Set,2017_03_17_1557,
9,"[2.7, 2.7]",0,10,10,18,,,,,1,0,1,0,right,0.575551450271,AS,m,26,60.0029843747,Set,2017_03_17_1557,
9,"[2.7, 2.7]",0,10,10,18,,,,,2,0,2,0,right,0.416892457329,AS,m,26,60.0029843747,Set,2017_03_17_1557,
9,"[2.7, 2.7]",0,10,10,18,,,,,3,0,3,0,right,0.400265264554,AS,m,26,60.0029843747,Set,2017_03_17_1557,
9,"[2.7, 2.7]",0,10,10,18,,,,,4,0,4,0,right,0.575444870762,AS,m,26,60.0029843747,Set,2017_03_17_1557,
9,"[2.7, 2.7]",0,10,10,18,,,,,5,0,5,0,right,0.258785309396,AS,m,26,60.0029843747,Set,2017_03_17_1557,
9,"[2.7, 2.7]",0,10,10,18,,,,,6,0,6,0,down,0.6754969763,AS,m,26,60.0029843747,Set,2017_03_17_1557,
9,"[2.7, 2.7]",0,10,10,18,,,,,7,0,7,0,right,0.542076010926,AS,m,26,60.0029843747,Set,2017_03_17_1557,
9,"[2.7, 2.7]",0,10,10,18,,,,,8,0,8,0,right,0.475446449718,AS,m,26,60.0029843747,Set,2017_03_17_1557,
9,"[2.7, 2.7]",0,10,10,18,,,,,9,0,9,0,right,0.316864036127,AS,m,26,60.0029843747,Set,2017_03_17_1557,
9,"[2.7, 2.7]",0,10,10,18,,,,,10,0,10,0,down,0.542109563735,AS,m,26,60.0029843747,Set,2017_03_17_1557,
9,"[2.7, 2.7]",0,10,10,18,,,,,11,0,11,0,right,0.408804651603,AS,m,26,60.0029843747,Set,2017_03_17_1557,
9,"[2.7, 2.7]",0,10,10,18,,,,,12,0,12,0,right,0.308792809436,AS,m,26,60.0029843747,Set,2017_03_17_1557,
9,"[2.7, 2.7]",0,10,10,18,,,,,13,0,13,0,right,0.242145879715,AS,m,26,60.0029843747,Set,2017_03_17_1557,
9,"[2.7, 2.7]",0,10,10,18,,,,,14,0,14,0,right,0.225435791767,AS,m,26,60.0029843747,Set,2017_03_17_1557,
9,"[2.7, 2.7]",0,10,10,18,,,,,15,0,15,0,right,0.308763993495,AS,m,26,60.0029843747,Set,2017_03_17_1557,
9,"[2.7, 2.7]",0,10,10,18,,,,,16,0,16,0,right,0.675480397265,AS,m,26,60.0029843747,Set,2017_03_17_1557,
9,"[2.7, 2.7]",0,10,10,18,,,,,17,0,17,0,right,0.425414081127,AS,m,26,60.0029843747,Set,2017_03_17_1557,
9,"[2.7, 2.7]",0,10,10,18,,,,,18,0,18,0,down,53.1915032448,AS,m,26,60.0029843747,Set,2017_03_17_1557,
9,"[2.7, 2.7]",0,10,10,18,,,,,19,0,19,0,down,0.808621098006,AS,m,26,60.0029843747,Set,2017_03_17_1557,
9,"[2.7, 2.7]",0,10,10,18,,,,,20,0,20,0,right,0.458613992705,AS,m,26,60.0029843747,Set,2017_03_17_1557,
9,"[2.7, 2.7]",0,10,10,18,,,,,21,0,21,0,left,1.14209811631,AS,m,26,60.0029843747,Set,2017_03_17_1557,
9,"[2.7, 2.7]",0,10,10,18,,,,,22,0,22,0,left,0.650223816967,AS,m,26,60.0029843747,Set,2017_03_17_1557,
