size,n,trials_2.thisRepN,trials_2.thisTrialN,trials_2.thisN,trials_2.thisIndex,trials.thisRepN,trials.thisTrialN,trials.thisN,trials.thisIndex,trials_3.thisRepN,trials_3.thisTrialN,trials_3.thisN,trials_3.thisIndex,answer.keys,answer.rt,participant,gender,age,frameRate,expName,date,
"[2.8, 2.8]",1,0,0,0,12,,,,,0,0,0,0,down,2.05022740923,PAV,f,20,59.9843250478,Set,2017_12_18_1639,
"[2.8, 2.8]",1,0,0,0,12,,,,,1,0,1,0,down,0.816896260192,PAV,f,20,59.9843250478,Set,2017_12_18_1639,
"[2.7, 2.7]",3,0,1,1,8,,,,,0,0,0,0,right,1.91688686539,PAV,f,20,59.9843250478,Set,2017_12_18_1639,
"[2.7, 2.7]",3,0,1,1,8,,,,,1,0,1,0,down,2.28354908462,PAV,f,20,59.9843250478,Set,2017_12_18_1639,
"[2.7, 2.7]",3,0,1,1,8,,,,,2,0,2,0,down,6.66683614138,PAV,f,20,59.9843250478,Set,2017_12_18_1639,
"[2.6, 2.6]",5,0,2,2,4,,,,,0,0,0,0,down,1.33356609789,PAV,f,20,59.9843250478,Set,2017_12_18_1639,
"[2.6, 2.6]",5,0,2,2,4,,,,,1,0,1,0,down,1.3502122513,PAV,f,20,59.9843250478,Set,2017_12_18_1639,
"[2.7, 2.7]",4,0,3,3,9,,,,,0,0,0,0,down,0.900265975273,PAV,f,20,59.9843250478,Set,2017_12_18_1639,
"[2.7, 2.7]",4,0,3,3,9,,,,,1,0,1,0,down,0.950229698792,PAV,f,20,59.9843250478,Set,2017_12_18_1639,
"[2.8, 2.8]",6,0,4,4,17,,,,,0,0,0,0,down,0.816917181306,PAV,f,20,59.9843250478,Set,2017_12_18_1639,
"[2.8, 2.8]",6,0,4,4,17,,,,,1,0,1,0,down,1.0335694137,PAV,f,20,59.9843250478,Set,2017_12_18_1639,
"[2.7, 2.7]",2,0,5,5,7,,,,,0,0,0,0,down,1.08357063739,PAV,f,20,59.9843250478,Set,2017_12_18_1639,
"[2.7, 2.7]",2,0,5,5,7,,,,,1,0,1,0,down,0.783591321728,PAV,f,20,59.9843250478,Set,2017_12_18_1639,
"[2.9, 2.9]",3,0,6,6,20,,,,,0,0,0,0,down,0.683579795354,PAV,f,20,59.9843250478,Set,2017_12_18_1639,
"[2.9, 2.9]",3,0,6,6,20,,,,,1,0,1,0,down,0.63356199261,PAV,f,20,59.9843250478,Set,2017_12_18_1639,
"[2.6, 2.6]",3,0,7,7,2,,,,,0,0,0,0,down,0.733529308171,PAV,f,20,59.9843250478,Set,2017_12_18_1639,
"[2.6, 2.6]",3,0,7,7,2,,,,,1,0,1,0,down,0.650244856777,PAV,f,20,59.9843250478,Set,2017_12_18_1639,
"[2.9, 2.9]",1,0,8,8,18,,,,,0,0,0,0,down,0.850228040828,PAV,f,20,59.9843250478,Set,2017_12_18_1639,
"[2.9, 2.9]",1,0,8,8,18,,,,,1,0,1,0,down,0.950249041023,PAV,f,20,59.9843250478,Set,2017_12_18_1639,
"[2.8, 2.8]",5,0,9,9,16,,,,,0,0,0,0,down,0.700212132826,PAV,f,20,59.9843250478,Set,2017_12_18_1639,
"[2.8, 2.8]",5,0,9,9,16,,,,,1,0,1,0,down,0.783561321557,PAV,f,20,59.9843250478,Set,2017_12_18_1639,
"[2.6, 2.6]",4,0,10,10,3,,,,,0,0,0,0,down,1.65023933043,PAV,f,20,59.9843250478,Set,2017_12_18_1639,
"[2.6, 2.6]",4,0,10,10,3,,,,,1,0,1,0,down,0.483583584835,PAV,f,20,59.9843250478,Set,2017_12_18_1639,
"[2.8, 2.8]",2,0,11,11,13,,,,,0,0,0,0,down,0.716867365234,PAV,f,20,59.9843250478,Set,2017_12_18_1639,
"[2.8, 2.8]",2,0,11,11,13,,,,,1,0,1,0,down,2.71687526006,PAV,f,20,59.9843250478,Set,2017_12_18_1639,
"[2.9, 2.9]",5,0,12,12,22,,,,,0,0,0,0,down,2.20021844871,PAV,f,20,59.9843250478,Set,2017_12_18_1639,
"[2.9, 2.9]",5,0,12,12,22,,,,,1,0,1,0,down,1.01690233912,PAV,f,20,59.9843250478,Set,2017_12_18_1639,
"[2.9, 2.9]",6,0,13,13,23,,,,,0,0,0,0,down,0.650172619498,PAV,f,20,59.9843250478,Set,2017_12_18_1639,
"[2.9, 2.9]",6,0,13,13,23,,,,,1,0,1,0,down,0.766895825916,PAV,f,20,59.9843250478,Set,2017_12_18_1639,
"[2.9, 2.9]",6,0,13,13,23,,,,,2,0,2,0,left,2.45021114603,PAV,f,20,59.9843250478,Set,2017_12_18_1639,
"[2.9, 2.9]",6,0,13,13,23,,,,,3,0,3,0,down,0.616872023151,PAV,f,20,59.9843250478,Set,2017_12_18_1639,
"[2.9, 2.9]",6,0,13,13,23,,,,,4,0,4,0,down,1.03356349265,PAV,f,20,59.9843250478,Set,2017_12_18_1639,
"[2.7, 2.7]",1,0,14,14,6,,,,,0,0,0,0,down,1.11689847073,PAV,f,20,59.9843250478,Set,2017_12_18_1639,
"[2.7, 2.7]",1,0,14,14,6,,,,,1,0,1,0,down,0.466909799725,PAV,f,20,59.9843250478,Set,2017_12_18_1639,
"[3.0, 3.0]",4,0,15,15,27,,,,,0,0,0,0,down,0.766748982947,PAV,f,20,59.9843250478,Set,2017_12_18_1639,
"[3.0, 3.0]",4,0,15,15,27,,,,,1,0,1,0,down,0.683555716241,PAV,f,20,59.9843250478,Set,2017_12_18_1639,
"[2.7, 2.7]",6,0,16,16,11,,,,,0,0,0,0,down,1.73356562422,PAV,f,20,59.9843250478,Set,2017_12_18_1639,
"[2.7, 2.7]",6,0,16,16,11,,,,,1,0,1,0,down,0.500217896071,PAV,f,20,59.9843250478,Set,2017_12_18_1639,
"[3.0, 3.0]",5,0,17,17,28,,,,,0,0,0,0,down,0.733595229627,PAV,f,20,59.9843250478,Set,2017_12_18_1639,
"[3.0, 3.0]",5,0,17,17,28,,,,,1,0,1,0,down,0.850221725006,PAV,f,20,59.9843250478,Set,2017_12_18_1639,
"[3.0, 3.0]",5,0,17,17,28,,,,,2,0,2,0,left,1.6668827206,PAV,f,20,59.9843250478,Set,2017_12_18_1639,
"[3.0, 3.0]",5,0,17,17,28,,,,,3,0,3,0,down,0.516929576115,PAV,f,20,59.9843250478,Set,2017_12_18_1639,
"[3.0, 3.0]",5,0,17,17,28,,,,,4,0,4,0,down,0.366743535502,PAV,f,20,59.9843250478,Set,2017_12_18_1639,
"[2.8, 2.8]",3,0,18,18,14,,,,,0,0,0,0,down,0.666908378655,PAV,f,20,59.9843250478,Set,2017_12_18_1639,
"[2.8, 2.8]",3,0,18,18,14,,,,,1,0,1,0,down,0.400212685461,PAV,f,20,59.9843250478,Set,2017_12_18_1639,
"[2.6, 2.6]",6,0,19,19,5,,,,,0,0,0,0,down,0.450211935502,PAV,f,20,59.9843250478,Set,2017_12_18_1639,
"[2.6, 2.6]",6,0,19,19,5,,,,,1,0,1,0,down,0.43357722956,PAV,f,20,59.9843250478,Set,2017_12_18_1639,
"[3.0, 3.0]",6,0,20,20,29,,,,,0,0,0,0,down,0.56387354451,PAV,f,20,59.9843250478,Set,2017_12_18_1639,
"[3.0, 3.0]",6,0,20,20,29,,,,,1,0,1,0,down,0.366904983879,PAV,f,20,59.9843250478,Set,2017_12_18_1639,
"[3.0, 3.0]",1,0,21,21,24,,,,,0,0,0,0,down,0.616951760487,PAV,f,20,59.9843250478,Set,2017_12_18_1639,
"[3.0, 3.0]",1,0,21,21,24,,,,,1,0,1,0,down,0.38358824281,PAV,f,20,59.9843250478,Set,2017_12_18_1639,
"[3.0, 3.0]",3,0,22,22,26,,,,,0,0,0,0,down,0.433578808501,PAV,f,20,59.9843250478,Set,2017_12_18_1639,
"[3.0, 3.0]",3,0,22,22,26,,,,,1,0,1,0,down,0.450241146202,PAV,f,20,59.9843250478,Set,2017_12_18_1639,
"[2.6, 2.6]",2,0,23,23,1,,,,,0,0,0,0,down,0.700230290822,PAV,f,20,59.9843250478,Set,2017_12_18_1639,
"[2.6, 2.6]",2,0,23,23,1,,,,,1,0,1,0,down,0.566903562867,PAV,f,20,59.9843250478,Set,2017_12_18_1639,
"[2.6, 2.6]",1,0,24,24,0,,,,,0,0,0,0,down,0.500224606658,PAV,f,20,59.9843250478,Set,2017_12_18_1639,
"[2.6, 2.6]",1,0,24,24,0,,,,,1,0,1,0,down,0.383559426758,PAV,f,20,59.9843250478,Set,2017_12_18_1639,
"[2.9, 2.9]",2,0,25,25,19,,,,,0,0,0,0,down,0.766906878678,PAV,f,20,59.9843250478,Set,2017_12_18_1639,
"[2.9, 2.9]",2,0,25,25,19,,,,,1,0,1,0,down,0.533571387408,PAV,f,20,59.9843250478,Set,2017_12_18_1639,
"[2.9, 2.9]",2,0,25,25,19,,,,,2,0,2,0,left,2.03355875576,PAV,f,20,59.9843250478,Set,2017_12_18_1639,
"[2.9, 2.9]",2,0,25,25,19,,,,,3,0,3,0,down,0.600221922388,PAV,f,20,59.9843250478,Set,2017_12_18_1639,
"[2.9, 2.9]",2,0,25,25,19,,,,,4,0,4,0,down,0.316904154955,PAV,f,20,59.9843250478,Set,2017_12_18_1639,
"[2.7, 2.7]",5,0,26,26,10,,,,,0,0,0,0,down,0.533586782229,PAV,f,20,59.9843250478,Set,2017_12_18_1639,
"[2.7, 2.7]",5,0,26,26,10,,,,,1,0,1,0,down,0.400230448809,PAV,f,20,59.9843250478,Set,2017_12_18_1639,
"[2.8, 2.8]",4,0,27,27,15,,,,,0,0,0,0,down,0.250255593623,PAV,f,20,59.9843250478,Set,2017_12_18_1639,
"[2.8, 2.8]",4,0,27,27,15,,,,,1,0,1,0,down,0.233567992633,PAV,f,20,59.9843250478,Set,2017_12_18_1639,
"[3.0, 3.0]",2,0,28,28,25,,,,,0,0,0,0,down,0.600216790801,PAV,f,20,59.9843250478,Set,2017_12_18_1639,
"[3.0, 3.0]",2,0,28,28,25,,,,,1,0,1,0,down,0.6002752122,PAV,f,20,59.9843250478,Set,2017_12_18_1639,
"[2.9, 2.9]",4,0,29,29,21,,,,,0,0,0,0,down,0.41690502339,PAV,f,20,59.9843250478,Set,2017_12_18_1639,
"[2.9, 2.9]",4,0,29,29,21,,,,,1,0,1,0,down,0.350211461773,PAV,f,20,59.9843250478,Set,2017_12_18_1639,
