number_of_fixational_trials,size,estimating_threshold.thisRepN,estimating_threshold.thisTrialN,estimating_threshold.thisN,estimating_threshold.thisIndex,trials_2.thisRepN,trials_2.thisTrialN,trials_2.thisN,trials_2.thisIndex,trials.thisRepN,trials.thisTrialN,trials.thisN,trials.thisIndex,trials_3.thisRepN,trials_3.thisTrialN,trials_3.thisN,trials_3.thisIndex,rating_up.response,rating_up.rt,rating_down.response,rating_down.rt,answer.keys,answer.rt,participant,gender,age,frameRate,expName,date,
,,0,0,0,0,,,,,,,,,,,,,0.32,86.234,0.31,26.618,,,LDS,f,20,60.0165836315,Set,2017_05_05_1327,
,,1,0,1,0,,,,,,,,,,,,,0.36,17.28,0.32,21.563,,,LDS,f,20,60.0165836315,Set,2017_05_05_1327,
,,2,0,2,0,,,,,,,,,,,,,0.39,15.63,0.37,21.267,,,LDS,f,20,60.0165836315,Set,2017_05_05_1327,
8,1,,,,,0,0,0,7,,,,,0,0,0,0,,,,,right,7.00017526422,LDS,f,20,60.0165836315,Set,2017_05_05_1327,
8,1,,,,,0,0,0,7,,,,,1,0,1,0,,,,,down,23.2833501361,LDS,f,20,60.0165836315,Set,2017_05_05_1327,
8,1,,,,,0,0,0,7,,,,,2,0,2,0,,,,,left,3.60021086969,LDS,f,20,60.0165836315,Set,2017_05_05_1327,
8,1,,,,,0,0,0,7,,,,,3,0,3,0,,,,,down,1.75021059338,LDS,f,20,60.0165836315,Set,2017_05_05_1327,
8,1,,,,,0,0,0,7,,,,,4,0,4,0,,,,,down,1.00006000037,LDS,f,20,60.0165836315,Set,2017_05_05_1327,
8,1,,,,,0,0,0,7,,,,,5,0,5,0,,,,,left,0.666898904914,LDS,f,20,60.0165836315,Set,2017_05_05_1327,
8,1,,,,,0,0,0,7,,,,,6,0,6,0,,,,,down,1.8168915233,LDS,f,20,60.0165836315,Set,2017_05_05_1327,
8,1,,,,,0,0,0,7,,,,,7,0,7,0,,,,,left,0.600229422438,LDS,f,20,60.0165836315,Set,2017_05_05_1327,
8,1,,,,,0,0,0,7,,,,,8,0,8,0,,,,,left,0.616919391883,LDS,f,20,60.0165836315,Set,2017_05_05_1327,
8,1,,,,,0,0,0,7,,,,,9,0,9,0,,,,,left,0.533411123273,LDS,f,20,60.0165836315,Set,2017_05_05_1327,
8,1,,,,,0,0,0,7,,,,,10,0,10,0,,,,,left,0.516922865587,LDS,f,20,60.0165836315,Set,2017_05_05_1327,
8,1,,,,,0,0,0,7,,,,,11,0,11,0,,,,,left,0.550246356754,LDS,f,20,60.0165836315,Set,2017_05_05_1327,
8,1,,,,,0,0,0,7,,,,,12,0,12,0,,,,,left,0.66690995761,LDS,f,20,60.0165836315,Set,2017_05_05_1327,
8,1,,,,,0,0,0,7,,,,,13,0,13,0,,,,,left,0.48356147945,LDS,f,20,60.0165836315,Set,2017_05_05_1327,
8,1,,,,,0,0,0,7,,,,,14,0,14,0,,,,,left,0.550238067233,LDS,f,20,60.0165836315,Set,2017_05_05_1327,
8,1,,,,,0,0,0,7,,,,,15,0,15,0,,,,,left,0.583561953143,LDS,f,20,60.0165836315,Set,2017_05_05_1327,
8,1,,,,,0,0,0,7,,,,,16,0,16,0,,,,,left,0.583562347878,LDS,f,20,60.0165836315,Set,2017_05_05_1327,
8,1,,,,,0,0,0,7,,,,,17,0,17,0,,,,,left,0.416901470722,LDS,f,20,60.0165836315,Set,2017_05_05_1327,
8,1,,,,,0,0,0,7,,,,,18,0,18,0,,,,,left,0.450251409413,LDS,f,20,60.0165836315,Set,2017_05_05_1327,
8,1,,,,,0,0,0,7,,,,,19,0,19,0,,,,,left,0.450251014678,LDS,f,20,60.0165836315,Set,2017_05_05_1327,
8,1,,,,,0,0,0,7,,,,,20,0,20,0,,,,,left,0.433555913623,LDS,f,20,60.0165836315,Set,2017_05_05_1327,
8,1,,,,,0,0,0,7,,,,,21,0,21,0,,,,,left,0.466917694503,LDS,f,20,60.0165836315,Set,2017_05_05_1327,
8,1,,,,,0,0,0,7,,,,,22,0,22,0,,,,,left,0.383571663719,LDS,f,20,60.0165836315,Set,2017_05_05_1327,
8,1,,,,,0,0,0,7,,,,,23,0,23,0,,,,,left,0.516888128528,LDS,f,20,60.0165836315,Set,2017_05_05_1327,
8,1,,,,,0,0,0,7,,,,,24,0,24,0,,,,,left,0.383568505815,LDS,f,20,60.0165836315,Set,2017_05_05_1327,
8,1,,,,,0,0,0,7,,,,,25,0,25,0,,,,,left,0.416866338928,LDS,f,20,60.0165836315,Set,2017_05_05_1327,
8,1,,,,,0,0,0,7,,,,,26,0,26,0,,,,,left,0.400245843593,LDS,f,20,60.0165836315,Set,2017_05_05_1327,
8,1,,,,,0,0,0,7,,,,,27,0,27,0,,,,,left,0.450224567147,LDS,f,20,60.0165836315,Set,2017_05_05_1327,
8,1,,,,,0,0,0,7,,,,,28,0,28,0,,,,,left,0.650219593437,LDS,f,20,60.0165836315,Set,2017_05_05_1327,
8,1,,,,,0,0,0,7,,,,,29,0,29,0,,,,,left,0.333571624244,LDS,f,20,60.0165836315,Set,2017_05_05_1327,
8,1,,,,,0,0,0,7,,,,,30,0,30,0,,,,,left,0.450239961981,LDS,f,20,60.0165836315,Set,2017_05_05_1327,
8,1,,,,,0,0,0,7,,,,,31,0,31,0,,,,,left,0.416906207589,LDS,f,20,60.0165836315,Set,2017_05_05_1327,
8,1,,,,,0,0,0,7,,,,,32,0,32,0,,,,,left,0.483599769155,LDS,f,20,60.0165836315,Set,2017_05_05_1327,
8,1,,,,,0,0,0,7,,,,,33,0,33,0,,,,,left,0.433398017936,LDS,f,20,60.0165836315,Set,2017_05_05_1327,
8,1,,,,,0,0,0,7,,,,,34,0,34,0,,,,,left,0.450256146287,LDS,f,20,60.0165836315,Set,2017_05_05_1327,
8,1,,,,,0,0,0,7,,,,,35,0,35,0,,,,,left,0.53356941371,LDS,f,20,60.0165836315,Set,2017_05_05_1327,
8,1,,,,,0,0,0,7,,,,,36,0,36,0,,,,,left,0.366883273236,LDS,f,20,60.0165836315,Set,2017_05_05_1327,
8,1,,,,,0,0,0,7,,,,,37,0,37,0,,,,,left,0.750239014604,LDS,f,20,60.0165836315,Set,2017_05_05_1327,
8,1,,,,,0,0,0,7,,,,,38,0,38,0,,,,,left,0.466890457501,LDS,f,20,60.0165836315,Set,2017_05_05_1327,
8,1,,,,,0,0,0,7,,,,,39,0,39,0,,,,,left,0.533546124097,LDS,f,20,60.0165836315,Set,2017_05_05_1327,
8,1,,,,,0,0,0,7,,,,,40,0,40,0,,,,,left,7.68350163699,LDS,f,20,60.0165836315,Set,2017_05_05_1327,
8,1,,,,,0,0,0,7,,,,,41,0,41,0,,,,,down,1.60021244865,LDS,f,20,60.0165836315,Set,2017_05_05_1327,
8,1,,,,,0,0,0,7,,,,,42,0,42,0,,,,,down,0.900247027814,LDS,f,20,60.0165836315,Set,2017_05_05_1327,
8,1,,,,,0,0,0,7,,,,,43,0,43,0,,,,,left,0.450222988198,LDS,f,20,60.0165836315,Set,2017_05_05_1327,
8,1,,,,,0,0,0,7,,,,,44,0,44,0,,,,,left,0.333559387327,LDS,f,20,60.0165836315,Set,2017_05_05_1327,
8,1,,,,,0,0,0,7,,,,,45,0,45,0,,,,,left,0.800230764551,LDS,f,20,60.0165836315,Set,2017_05_05_1327,
8,1,,,,,0,0,0,7,,,,,46,0,46,0,,,,,left,0.550220303965,LDS,f,20,60.0165836315,Set,2017_05_05_1327,
8,1,,,,,0,0,0,7,,,,,47,0,47,0,,,,,left,0.533570992666,LDS,f,20,60.0165836315,Set,2017_05_05_1327,
8,1,,,,,0,0,0,7,,,,,48,0,48,0,,,,,left,0.767142537974,LDS,f,20,60.0165836315,Set,2017_05_05_1327,
8,1,,,,,0,0,0,7,,,,,49,0,49,0,,,,,left,0.533557571536,LDS,f,20,60.0165836315,Set,2017_05_05_1327,
8,1,,,,,0,0,0,7,,,,,50,0,50,0,,,,,left,0.450233251417,LDS,f,20,60.0165836315,Set,2017_05_05_1327,
8,1,,,,,0,0,0,7,,,,,51,0,51,0,,,,,left,0.383576795335,LDS,f,20,60.0165836315,Set,2017_05_05_1327,
8,1,,,,,0,0,0,7,,,,,52,0,52,0,,,,,left,0.416920418204,LDS,f,20,60.0165836315,Set,2017_05_05_1327,
8,1,,,,,0,0,0,7,,,,,53,0,53,0,,,,,left,0.7168728916,LDS,f,20,60.0165836315,Set,2017_05_05_1327,
8,1,,,,,0,0,0,7,,,,,54,0,54,0,,,,,left,0.516951681544,LDS,f,20,60.0165836315,Set,2017_05_05_1327,
8,1,,,,,0,0,0,7,,,,,55,0,55,0,,,,,left,0.467068879625,LDS,f,20,60.0165836315,Set,2017_05_05_1327,
8,1,,,,,0,0,0,7,,,,,56,0,56,0,,,,,left,0.36688801011,LDS,f,20,60.0165836315,Set,2017_05_05_1327,
8,1,,,,,0,0,0,7,,,,,57,0,57,0,,,,,left,0.48356976897,LDS,f,20,60.0165836315,Set,2017_05_05_1327,
8,1,,,,,0,0,0,7,,,,,58,0,58,0,,,,,left,2.23351233442,LDS,f,20,60.0165836315,Set,2017_05_05_1327,
8,1,,,,,0,0,0,7,,,,,59,0,59,0,,,,,left,0.566881852181,LDS,f,20,60.0165836315,Set,2017_05_05_1327,
8,1,,,,,0,0,0,7,,,,,60,0,60,0,,,,,left,0.750325462497,LDS,f,20,60.0165836315,Set,2017_05_05_1327,
8,1,,,,,0,0,0,7,,,,,61,0,61,0,,,,,left,1.26691793135,LDS,f,20,60.0165836315,Set,2017_05_05_1327,
8,1,,,,,0,0,0,7,,,,,62,0,62,0,,,,,down,0.483563453148,LDS,f,20,60.0165836315,Set,2017_05_05_1327,
8,1,,,,,0,0,0,7,,,,,63,0,63,0,,,,,down,1.16699206337,LDS,f,20,60.0165836315,Set,2017_05_05_1327,
3,2,,,,,0,1,1,10,,,,,0,0,0,0,,,,,right,0.0669007996621,LDS,f,20,60.0165836315,Set,2017_05_05_1327,
3,2,,,,,0,1,1,10,,,,,1,0,1,0,,,,,left,0.583563137356,LDS,f,20,60.0165836315,Set,2017_05_05_1327,
3,2,,,,,0,1,1,10,,,,,2,0,2,0,,,,,left,0.38357008477,LDS,f,20,60.0165836315,Set,2017_05_05_1327,
3,2,,,,,0,1,1,10,,,,,3,0,3,0,,,,,down,1.71688276008,LDS,f,20,60.0165836315,Set,2017_05_05_1327,
3,2,,,,,0,1,1,10,,,,,4,0,4,0,,,,,down,0.600061263525,LDS,f,20,60.0165836315,Set,2017_05_05_1327,
4,1,,,,,0,2,2,3,,,,,0,0,0,0,,,,,down,0.700222790823,LDS,f,20,60.0165836315,Set,2017_05_05_1327,
4,1,,,,,0,2,2,3,,,,,1,0,1,0,,,,,down,0.833567676862,LDS,f,20,60.0165836315,Set,2017_05_05_1327,
4,1,,,,,0,2,2,3,,,,,2,0,2,0,,,,,left,0.466899141764,LDS,f,20,60.0165836315,Set,2017_05_05_1327,
4,1,,,,,0,2,2,3,,,,,3,0,3,0,,,,,down,0.683569532135,LDS,f,20,60.0165836315,Set,2017_05_05_1327,
4,1,,,,,0,2,2,3,,,,,4,0,4,0,,,,,left,0.616920970839,LDS,f,20,60.0165836315,Set,2017_05_05_1327,
4,1,,,,,0,2,2,3,,,,,5,0,5,0,,,,,left,0.433581571677,LDS,f,20,60.0165836315,Set,2017_05_05_1327,
4,1,,,,,0,2,2,3,,,,,6,0,6,0,,,,,left,0.450218646067,LDS,f,20,60.0165836315,Set,2017_05_05_1327,
4,1,,,,,0,2,2,3,,,,,7,0,7,0,,,,,down,0.683565190004,LDS,f,20,60.0165836315,Set,2017_05_05_1327,
4,1,,,,,0,2,2,3,,,,,8,0,8,0,,,,,down,1.08356629527,LDS,f,20,60.0165836315,Set,2017_05_05_1327,
4,1,,,,,0,2,2,3,,,,,9,0,9,0,,,,,left,0.433558676807,LDS,f,20,60.0165836315,Set,2017_05_05_1327,
4,1,,,,,0,2,2,3,,,,,10,0,10,0,,,,,down,0.733539571425,LDS,f,20,60.0165836315,Set,2017_05_05_1327,
4,1,,,,,0,2,2,3,,,,,11,0,11,0,,,,,left,1.36690616811,LDS,f,20,60.0165836315,Set,2017_05_05_1327,
4,1,,,,,0,2,2,3,,,,,12,0,12,0,,,,,left,0.466901904932,LDS,f,20,60.0165836315,Set,2017_05_05_1327,
4,1,,,,,0,2,2,3,,,,,13,0,13,0,,,,,left,0.383574426894,LDS,f,20,60.0165836315,Set,2017_05_05_1327,
4,1,,,,,0,2,2,3,,,,,14,0,14,0,,,,,left,0.483560689972,LDS,f,20,60.0165836315,Set,2017_05_05_1327,
4,1,,,,,0,2,2,3,,,,,15,0,15,0,,,,,left,0.833562939988,LDS,f,20,60.0165836315,Set,2017_05_05_1327,
4,1,,,,,0,2,2,3,,,,,16,0,16,0,,,,,left,0.400229659281,LDS,f,20,60.0165836315,Set,2017_05_05_1327,
4,1,,,,,0,2,2,3,,,,,17,0,17,0,,,,,down,0.666900878612,LDS,f,20,60.0165836315,Set,2017_05_05_1327,
4,1,,,,,0,2,2,3,,,,,18,0,18,0,,,,,down,0.583543400397,LDS,f,20,60.0165836315,Set,2017_05_05_1327,
5,1,,,,,0,3,3,4,,,,,0,0,0,0,,,,,down,2.08355997944,LDS,f,20,60.0165836315,Set,2017_05_05_1327,
5,1,,,,,0,3,3,4,,,,,1,0,1,0,,,,,down,1.3668666942,LDS,f,20,60.0165836315,Set,2017_05_05_1327,
2,3,,,,,0,4,4,17,,,,,0,0,0,0,,,,,down,0.816975997492,LDS,f,20,60.0165836315,Set,2017_05_05_1327,
2,3,,,,,0,4,4,17,,,,,1,0,1,0,,,,,down,1.00023368563,LDS,f,20,60.0165836315,Set,2017_05_05_1327,
6,2,,,,,0,5,5,13,,,,,0,0,0,0,,,,,down,1.36689156276,LDS,f,20,60.0165836315,Set,2017_05_05_1327,
6,2,,,,,0,5,5,13,,,,,1,0,1,0,,,,,down,0.883594558603,LDS,f,20,60.0165836315,Set,2017_05_05_1327,
7,1,,,,,0,6,6,6,,,,,0,0,0,0,,,,,left,0.733549439909,LDS,f,20,60.0165836315,Set,2017_05_05_1327,
7,1,,,,,0,6,6,6,,,,,1,0,1,0,,,,,left,3.05020609335,LDS,f,20,60.0165836315,Set,2017_05_05_1327,
7,1,,,,,0,6,6,6,,,,,2,0,2,0,,,,,down,0.75024177778,LDS,f,20,60.0165836315,Set,2017_05_05_1327,
7,1,,,,,0,6,6,6,,,,,3,0,3,0,,,,,down,1.21694986575,LDS,f,20,60.0165836315,Set,2017_05_05_1327,
7,1,,,,,0,6,6,6,,,,,4,0,4,0,,,,,left,0.683616506103,LDS,f,20,60.0165836315,Set,2017_05_05_1327,
7,1,,,,,0,6,6,6,,,,,5,0,5,0,,,,,left,0.616918602405,LDS,f,20,60.0165836315,Set,2017_05_05_1327,
7,1,,,,,0,6,6,6,,,,,6,0,6,0,,,,,left,0.666897325958,LDS,f,20,60.0165836315,Set,2017_05_05_1327,
7,1,,,,,0,6,6,6,,,,,7,0,7,0,,,,,left,0.433573282156,LDS,f,20,60.0165836315,Set,2017_05_05_1327,
7,1,,,,,0,6,6,6,,,,,8,0,8,0,,,,,left,0.433635650952,LDS,f,20,60.0165836315,Set,2017_05_05_1327,
7,1,,,,,0,6,6,6,,,,,9,0,9,0,,,,,left,0.566914220799,LDS,f,20,60.0165836315,Set,2017_05_05_1327,
7,1,,,,,0,6,6,6,,,,,10,0,10,0,,,,,left,0.36690893129,LDS,f,20,60.0165836315,Set,2017_05_05_1327,
7,1,,,,,0,6,6,6,,,,,11,0,11,0,,,,,left,0.450240356717,LDS,f,20,60.0165836315,Set,2017_05_05_1327,
7,1,,,,,0,6,6,6,,,,,12,0,12,0,,,,,left,0.533561518925,LDS,f,20,60.0165836315,Set,2017_05_05_1327,
7,1,,,,,0,6,6,6,,,,,13,0,13,0,,,,,down,0.950228119807,LDS,f,20,60.0165836315,Set,2017_05_05_1327,
7,1,,,,,0,6,6,6,,,,,14,0,14,0,,,,,left,0.550230961926,LDS,f,20,60.0165836315,Set,2017_05_05_1327,
7,1,,,,,0,6,6,6,,,,,15,0,15,0,,,,,left,0.433570913716,LDS,f,20,60.0165836315,Set,2017_05_05_1327,
7,1,,,,,0,6,6,6,,,,,16,0,16,0,,,,,left,0.516909444457,LDS,f,20,60.0165836315,Set,2017_05_05_1327,
7,1,,,,,0,6,6,6,,,,,17,0,17,0,,,,,left,0.350228040857,LDS,f,20,60.0165836315,Set,2017_05_05_1327,
7,1,,,,,0,6,6,6,,,,,18,0,18,0,,,,,left,0.566902378625,LDS,f,20,60.0165836315,Set,2017_05_05_1327,
7,1,,,,,0,6,6,6,,,,,19,0,19,0,,,,,left,0.383568505807,LDS,f,20,60.0165836315,Set,2017_05_05_1327,
7,1,,,,,0,6,6,6,,,,,20,0,20,0,,,,,left,0.650225119782,LDS,f,20,60.0165836315,Set,2017_05_05_1327,
7,1,,,,,0,6,6,6,,,,,21,0,21,0,,,,,left,0.40023479089,LDS,f,20,60.0165836315,Set,2017_05_05_1327,
7,1,,,,,0,6,6,6,,,,,22,0,22,0,,,,,left,0.666890220651,LDS,f,20,60.0165836315,Set,2017_05_05_1327,
7,1,,,,,0,6,6,6,,,,,23,0,23,0,,,,,left,0.466898352279,LDS,f,20,60.0165836315,Set,2017_05_05_1327,
7,1,,,,,0,6,6,6,,,,,24,0,24,0,,,,,left,0.550263330537,LDS,f,20,60.0165836315,Set,2017_05_05_1327,
7,1,,,,,0,6,6,6,,,,,25,0,25,0,,,,,left,0.38355547942,LDS,f,20,60.0165836315,Set,2017_05_05_1327,
7,1,,,,,0,6,6,6,,,,,26,0,26,0,,,,,left,0.433574861112,LDS,f,20,60.0165836315,Set,2017_05_05_1327,
7,1,,,,,0,6,6,6,,,,,27,0,27,0,,,,,left,0.383571663726,LDS,f,20,60.0165836315,Set,2017_05_05_1327,
7,1,,,,,0,6,6,6,,,,,28,0,28,0,,,,,left,0.383579163768,LDS,f,20,60.0165836315,Set,2017_05_05_1327,
7,1,,,,,0,6,6,6,,,,,29,0,29,0,,,,,left,0.383568505807,LDS,f,20,60.0165836315,Set,2017_05_05_1327,
7,1,,,,,0,6,6,6,,,,,30,0,30,0,,,,,left,0.350224488204,LDS,f,20,60.0165836315,Set,2017_05_05_1327,
7,1,,,,,0,6,6,6,,,,,31,0,31,0,,,,,left,0.450240356717,LDS,f,20,60.0165836315,Set,2017_05_05_1327,
7,1,,,,,0,6,6,6,,,,,32,0,32,0,,,,,left,0.716899339124,LDS,f,20,60.0165836315,Set,2017_05_05_1327,
7,1,,,,,0,6,6,6,,,,,33,0,33,0,,,,,left,0.483550821489,LDS,f,20,60.0165836315,Set,2017_05_05_1327,
7,1,,,,,0,6,6,6,,,,,34,0,34,0,,,,,left,0.333560176812,LDS,f,20,60.0165836315,Set,2017_05_05_1327,
7,1,,,,,0,6,6,6,,,,,35,0,35,0,,,,,left,0.366916036597,LDS,f,20,60.0165836315,Set,2017_05_05_1327,
7,1,,,,,0,6,6,6,,,,,36,0,36,0,,,,,left,0.333537676677,LDS,f,20,60.0165836315,Set,2017_05_05_1327,
7,1,,,,,0,6,6,6,,,,,37,0,37,0,,,,,left,0.333590571732,LDS,f,20,60.0165836315,Set,2017_05_05_1327,
7,1,,,,,0,6,6,6,,,,,38,0,38,0,,,,,left,0.433566966327,LDS,f,20,60.0165836315,Set,2017_05_05_1327,
7,1,,,,,0,6,6,6,,,,,39,0,39,0,,,,,left,0.433566176849,LDS,f,20,60.0165836315,Set,2017_05_05_1327,
7,1,,,,,0,6,6,6,,,,,40,0,40,0,,,,,left,0.45023561985,LDS,f,20,60.0165836315,Set,2017_05_05_1327,
7,1,,,,,0,6,6,6,,,,,41,0,41,0,,,,,left,0.383566532117,LDS,f,20,60.0165836315,Set,2017_05_05_1327,
7,1,,,,,0,6,6,6,,,,,42,0,42,0,,,,,down,1.10022034344,LDS,f,20,60.0165836315,Set,2017_05_05_1327,
7,1,,,,,0,6,6,6,,,,,43,0,43,0,,,,,down,0.433574466377,LDS,f,20,60.0165836315,Set,2017_05_05_1327,
7,3,,,,,0,7,7,22,,,,,0,0,0,0,,,,,down,0.883564163676,LDS,f,20,60.0165836315,Set,2017_05_05_1327,
7,3,,,,,0,7,7,22,,,,,1,0,1,0,,,,,down,1.25024651465,LDS,f,20,60.0165836315,Set,2017_05_05_1327,
7,3,,,,,0,7,7,22,,,,,2,0,2,0,,,,,left,0.450214698663,LDS,f,20,60.0165836315,Set,2017_05_05_1327,
7,3,,,,,0,7,7,22,,,,,3,0,3,0,,,,,left,0.783562111035,LDS,f,20,60.0165836315,Set,2017_05_05_1327,
7,3,,,,,0,7,7,22,,,,,4,0,4,0,,,,,down,0.516873523185,LDS,f,20,60.0165836315,Set,2017_05_05_1327,
7,3,,,,,0,7,7,22,,,,,5,0,5,0,,,,,down,0.883561795243,LDS,f,20,60.0165836315,Set,2017_05_05_1327,
7,3,,,,,0,7,7,22,,,,,6,0,6,0,,,,,left,0.58359195332,LDS,f,20,60.0165836315,Set,2017_05_05_1327,
7,3,,,,,0,7,7,22,,,,,7,0,7,0,,,,,down,0.616941892018,LDS,f,20,60.0165836315,Set,2017_05_05_1327,
7,3,,,,,0,7,7,22,,,,,8,0,8,0,,,,,down,0.550223856619,LDS,f,20,60.0165836315,Set,2017_05_05_1327,
4,2,,,,,0,8,8,11,,,,,0,0,0,0,,,,,down,0.700249238347,LDS,f,20,60.0165836315,Set,2017_05_05_1327,
4,2,,,,,0,8,8,11,,,,,1,0,1,0,,,,,down,0.583574584794,LDS,f,20,60.0165836315,Set,2017_05_05_1327,
1,2,,,,,0,9,9,8,,,,,0,0,0,0,,,,,down,1.11689452331,LDS,f,20,60.0165836315,Set,2017_05_05_1327,
1,2,,,,,0,9,9,8,,,,,1,0,1,0,,,,,down,0.600232975092,LDS,f,20,60.0165836315,Set,2017_05_05_1327,
7,2,,,,,0,10,10,14,,,,,0,0,0,0,,,,,left,0.550234909315,LDS,f,20,60.0165836315,Set,2017_05_05_1327,
7,2,,,,,0,10,10,14,,,,,1,0,1,0,,,,,down,0.566894089097,LDS,f,20,60.0165836315,Set,2017_05_05_1327,
7,2,,,,,0,10,10,14,,,,,2,0,2,0,,,,,left,0.450234435622,LDS,f,20,60.0165836315,Set,2017_05_05_1327,
7,2,,,,,0,10,10,14,,,,,3,0,3,0,,,,,down,0.383574821637,LDS,f,20,60.0165836315,Set,2017_05_05_1327,
7,2,,,,,0,10,10,14,,,,,4,0,4,0,,,,,down,0.433560650497,LDS,f,20,60.0165836315,Set,2017_05_05_1327,
7,2,,,,,0,10,10,14,,,,,5,0,5,0,,,,,left,0.383559426802,LDS,f,20,60.0165836315,Set,2017_05_05_1327,
7,2,,,,,0,10,10,14,,,,,6,0,6,0,,,,,down,0.383568505807,LDS,f,20,60.0165836315,Set,2017_05_05_1327,
7,2,,,,,0,10,10,14,,,,,7,0,7,0,,,,,down,0.366943668349,LDS,f,20,60.0165836315,Set,2017_05_05_1327,
1,1,,,,,0,11,11,0,,,,,0,0,0,0,,,,,down,0.88353732141,LDS,f,20,60.0165836315,Set,2017_05_05_1327,
1,1,,,,,0,11,11,0,,,,,1,0,1,0,,,,,down,0.500247896241,LDS,f,20,60.0165836315,Set,2017_05_05_1327,
5,2,,,,,0,12,12,12,,,,,0,0,0,0,,,,,down,1.1168913654,LDS,f,20,60.0165836315,Set,2017_05_05_1327,
5,2,,,,,0,12,12,12,,,,,1,0,1,0,,,,,left,0.666903641788,LDS,f,20,60.0165836315,Set,2017_05_05_1327,
5,2,,,,,0,12,12,12,,,,,2,0,2,0,,,,,left,0.467203485707,LDS,f,20,60.0165836315,Set,2017_05_05_1327,
5,2,,,,,0,12,12,12,,,,,3,0,3,0,,,,,left,0.433593413851,LDS,f,20,60.0165836315,Set,2017_05_05_1327,
5,2,,,,,0,12,12,12,,,,,4,0,4,0,,,,,down,0.533581255891,LDS,f,20,60.0165836315,Set,2017_05_05_1327,
5,2,,,,,0,12,12,12,,,,,5,0,5,0,,,,,down,0.483558716274,LDS,f,20,60.0165836315,Set,2017_05_05_1327,
5,2,,,,,0,12,12,12,,,,,6,0,6,0,,,,,left,0.366922747162,LDS,f,20,60.0165836315,Set,2017_05_05_1327,
5,2,,,,,0,12,12,12,,,,,7,0,7,0,,,,,left,0.516975760642,LDS,f,20,60.0165836315,Set,2017_05_05_1327,
5,2,,,,,0,12,12,12,,,,,8,0,8,0,,,,,left,0.400239922506,LDS,f,20,60.0165836315,Set,2017_05_05_1327,
5,2,,,,,0,12,12,12,,,,,9,0,9,0,,,,,left,0.583586821711,LDS,f,20,60.0165836315,Set,2017_05_05_1327,
5,2,,,,,0,12,12,12,,,,,10,0,10,0,,,,,left,0.46692479981,LDS,f,20,60.0165836315,Set,2017_05_05_1327,
5,2,,,,,0,12,12,12,,,,,11,0,11,0,,,,,left,0.416907786544,LDS,f,20,60.0165836315,Set,2017_05_05_1327,
5,2,,,,,0,12,12,12,,,,,12,0,12,0,,,,,left,0.383641532564,LDS,f,20,60.0165836315,Set,2017_05_05_1327,
5,2,,,,,0,12,12,12,,,,,13,0,13,0,,,,,left,0.416888839063,LDS,f,20,60.0165836315,Set,2017_05_05_1327,
5,2,,,,,0,12,12,12,,,,,14,0,14,0,,,,,left,0.350261198946,LDS,f,20,60.0165836315,Set,2017_05_05_1327,
5,2,,,,,0,12,12,12,,,,,15,0,15,0,,,,,left,0.433670782746,LDS,f,20,60.0165836315,Set,2017_05_05_1327,
5,2,,,,,0,12,12,12,,,,,16,0,16,0,,,,,left,0.383593769118,LDS,f,20,60.0165836315,Set,2017_05_05_1327,
5,2,,,,,0,12,12,12,,,,,17,0,17,0,,,,,left,0.550258198928,LDS,f,20,60.0165836315,Set,2017_05_05_1327,
5,2,,,,,0,12,12,12,,,,,18,0,18,0,,,,,left,0.350248567294,LDS,f,20,60.0165836315,Set,2017_05_05_1327,
5,2,,,,,0,12,12,12,,,,,19,0,19,0,,,,,left,0.350255277859,LDS,f,20,60.0165836315,Set,2017_05_05_1327,
5,2,,,,,0,12,12,12,,,,,20,0,20,0,,,,,left,0.383585084863,LDS,f,20,60.0165836315,Set,2017_05_05_1327,
5,2,,,,,0,12,12,12,,,,,21,0,21,0,,,,,left,0.716902497043,LDS,f,20,60.0165836315,Set,2017_05_05_1327,
5,2,,,,,0,12,12,12,,,,,22,0,22,0,,,,,left,0.41694726047,LDS,f,20,60.0165836315,Set,2017_05_05_1327,
5,2,,,,,0,12,12,12,,,,,23,0,23,0,,,,,left,2.46689598385,LDS,f,20,60.0165836315,Set,2017_05_05_1327,
5,2,,,,,0,12,12,12,,,,,24,0,24,0,,,,,down,0.416908576022,LDS,f,20,60.0165836315,Set,2017_05_05_1327,
5,2,,,,,0,12,12,12,,,,,25,0,25,0,,,,,down,0.433592229638,LDS,f,20,60.0165836315,Set,2017_05_05_1327,
1,3,,,,,0,13,13,16,,,,,0,0,0,0,,,,,down,0.783552242552,LDS,f,20,60.0165836315,Set,2017_05_05_1327,
1,3,,,,,0,13,13,16,,,,,1,0,1,0,,,,,down,0.616961628984,LDS,f,20,60.0165836315,Set,2017_05_05_1327,
3,3,,,,,0,14,14,18,,,,,0,0,0,0,,,,,down,0.900237554066,LDS,f,20,60.0165836315,Set,2017_05_05_1327,
3,3,,,,,0,14,14,18,,,,,1,0,1,0,,,,,down,0.817034418891,LDS,f,20,60.0165836315,Set,2017_05_05_1327,
6,1,,,,,0,15,15,5,,,,,0,0,0,0,,,,,down,0.416900681244,LDS,f,20,60.0165836315,Set,2017_05_05_1327,
6,1,,,,,0,15,15,5,,,,,1,0,1,0,,,,,down,2.13354186091,LDS,f,20,60.0165836315,Set,2017_05_05_1327,
3,1,,,,,0,16,16,2,,,,,0,0,0,0,,,,,down,0.600225869792,LDS,f,20,60.0165836315,Set,2017_05_05_1327,
3,1,,,,,0,16,16,2,,,,,1,0,1,0,,,,,down,0.333654519491,LDS,f,20,60.0165836315,Set,2017_05_05_1327,
4,3,,,,,0,17,17,19,,,,,0,0,0,0,,,,,left,0.900224922414,LDS,f,20,60.0165836315,Set,2017_05_05_1327,
4,3,,,,,0,17,17,19,,,,,1,0,1,0,,,,,down,1.6002621858,LDS,f,20,60.0165836315,Set,2017_05_05_1327,
4,3,,,,,0,17,17,19,,,,,2,0,2,0,,,,,left,0.46690269441,LDS,f,20,60.0165836315,Set,2017_05_05_1327,
4,3,,,,,0,17,17,19,,,,,3,0,3,0,,,,,down,0.36691011551,LDS,f,20,60.0165836315,Set,2017_05_05_1327,
4,3,,,,,0,17,17,19,,,,,4,0,4,0,,,,,left,0.366912878686,LDS,f,20,60.0165836315,Set,2017_05_05_1327,
4,3,,,,,0,17,17,19,,,,,5,0,5,0,,,,,left,0.300225632942,LDS,f,20,60.0165836315,Set,2017_05_05_1327,
4,3,,,,,0,17,17,19,,,,,6,0,6,0,,,,,left,0.350235146165,LDS,f,20,60.0165836315,Set,2017_05_05_1327,
4,3,,,,,0,17,17,19,,,,,7,0,7,0,,,,,left,0.300235501425,LDS,f,20,60.0165836315,Set,2017_05_05_1327,
4,3,,,,,0,17,17,19,,,,,8,0,8,0,,,,,left,0.466895194368,LDS,f,20,60.0165836315,Set,2017_05_05_1327,
4,3,,,,,0,17,17,19,,,,,9,0,9,0,,,,,left,0.383529821367,LDS,f,20,60.0165836315,Set,2017_05_05_1327,
4,3,,,,,0,17,17,19,,,,,10,0,10,0,,,,,left,0.433557492579,LDS,f,20,60.0165836315,Set,2017_05_05_1327,
4,3,,,,,0,17,17,19,,,,,11,0,11,0,,,,,left,0.41689594437,LDS,f,20,60.0165836315,Set,2017_05_05_1327,
4,3,,,,,0,17,17,19,,,,,12,0,12,0,,,,,left,0.38355547942,LDS,f,20,60.0165836315,Set,2017_05_05_1327,
4,3,,,,,0,17,17,19,,,,,13,0,13,0,,,,,left,0.366898273329,LDS,f,20,60.0165836315,Set,2017_05_05_1327,
4,3,,,,,0,17,17,19,,,,,14,0,14,0,,,,,left,0.350236725113,LDS,f,20,60.0165836315,Set,2017_05_05_1327,
4,3,,,,,0,17,17,19,,,,,15,0,15,0,,,,,left,0.416740417109,LDS,f,20,60.0165836315,Set,2017_05_05_1327,
4,3,,,,,0,17,17,19,,,,,16,0,16,0,,,,,left,0.516892865409,LDS,f,20,60.0165836315,Set,2017_05_05_1327,
4,3,,,,,0,17,17,19,,,,,17,0,17,0,,,,,left,0.333553071505,LDS,f,20,60.0165836315,Set,2017_05_05_1327,
4,3,,,,,0,17,17,19,,,,,18,0,18,0,,,,,left,0.333563334723,LDS,f,20,60.0165836315,Set,2017_05_05_1327,
4,3,,,,,0,17,17,19,,,,,19,0,19,0,,,,,left,0.300229975073,LDS,f,20,60.0165836315,Set,2017_05_05_1327,
4,3,,,,,0,17,17,19,,,,,20,0,20,0,,,,,left,0.250225198732,LDS,f,20,60.0165836315,Set,2017_05_05_1327,
4,3,,,,,0,17,17,19,,,,,21,0,21,0,,,,,left,0.450243514635,LDS,f,20,60.0165836315,Set,2017_05_05_1327,
4,3,,,,,0,17,17,19,,,,,22,0,22,0,,,,,down,0.666908378655,LDS,f,20,60.0165836315,Set,2017_05_05_1327,
4,3,,,,,0,17,17,19,,,,,23,0,23,0,,,,,down,0.333598071775,LDS,f,20,60.0165836315,Set,2017_05_05_1327,
4,3,,,,,0,17,17,19,,,,,24,0,24,0,,,,,left,0.566902378618,LDS,f,20,60.0165836315,Set,2017_05_05_1327,
4,3,,,,,0,17,17,19,,,,,25,0,25,0,,,,,down,0.35024185673,LDS,f,20,60.0165836315,Set,2017_05_05_1327,
4,3,,,,,0,17,17,19,,,,,26,0,26,0,,,,,down,0.250237040906,LDS,f,20,60.0165836315,Set,2017_05_05_1327,
5,3,,,,,0,18,18,20,,,,,0,0,0,0,,,,,down,1.3668959049,LDS,f,20,60.0165836315,Set,2017_05_05_1327,
5,3,,,,,0,18,18,20,,,,,1,0,1,0,,,,,left,0.616905970754,LDS,f,20,60.0165836315,Set,2017_05_05_1327,
5,3,,,,,0,18,18,20,,,,,2,0,2,0,,,,,down,0.666928905099,LDS,f,20,60.0165836315,Set,2017_05_05_1327,
5,3,,,,,0,18,18,20,,,,,3,0,3,0,,,,,down,0.383596927029,LDS,f,20,60.0165836315,Set,2017_05_05_1327,
2,1,,,,,0,19,19,1,,,,,0,0,0,0,,,,,left,1.25022954086,LDS,f,20,60.0165836315,Set,2017_05_05_1327,
2,1,,,,,0,19,19,1,,,,,1,0,1,0,,,,,down,1.65021051443,LDS,f,20,60.0165836315,Set,2017_05_05_1327,
2,1,,,,,0,19,19,1,,,,,2,0,2,0,,,,,down,0.516888918013,LDS,f,20,60.0165836315,Set,2017_05_05_1327,
2,1,,,,,0,19,19,1,,,,,3,0,3,0,,,,,left,0.500229738231,LDS,f,20,60.0165836315,Set,2017_05_05_1327,
2,1,,,,,0,19,19,1,,,,,4,0,4,0,,,,,down,0.733566808427,LDS,f,20,60.0165836315,Set,2017_05_05_1327,
2,1,,,,,0,19,19,1,,,,,5,0,5,0,,,,,down,0.350200409113,LDS,f,20,60.0165836315,Set,2017_05_05_1327,
2,1,,,,,0,19,19,1,,,,,6,0,6,0,,,,,left,0.383585479598,LDS,f,20,60.0165836315,Set,2017_05_05_1327,
2,1,,,,,0,19,19,1,,,,,7,0,7,0,,,,,left,0.667064300651,LDS,f,20,60.0165836315,Set,2017_05_05_1327,
2,1,,,,,0,19,19,1,,,,,8,0,8,0,,,,,down,0.683573084782,LDS,f,20,60.0165836315,Set,2017_05_05_1327,
2,1,,,,,0,19,19,1,,,,,9,0,9,0,,,,,down,0.283564084726,LDS,f,20,60.0165836315,Set,2017_05_05_1327,
8,3,,,,,0,20,20,23,,,,,0,0,0,0,,,,,left,2.50022421189,LDS,f,20,60.0165836315,Set,2017_05_05_1327,
8,3,,,,,0,20,20,23,,,,,1,0,1,0,,,,,down,0.683551374124,LDS,f,20,60.0165836315,Set,2017_05_05_1327,
8,3,,,,,0,20,20,23,,,,,2,0,2,0,,,,,left,0.783559347859,LDS,f,20,60.0165836315,Set,2017_05_05_1327,
8,3,,,,,0,20,20,23,,,,,3,0,3,0,,,,,down,0.733557334694,LDS,f,20,60.0165836315,Set,2017_05_05_1327,
8,3,,,,,0,20,20,23,,,,,4,0,4,0,,,,,down,1.56688501009,LDS,f,20,60.0165836315,Set,2017_05_05_1327,
8,3,,,,,0,20,20,23,,,,,5,0,5,0,,,,,left,0.816901786515,LDS,f,20,60.0165836315,Set,2017_05_05_1327,
8,3,,,,,0,20,20,23,,,,,6,0,6,0,,,,,down,1.3002201066,LDS,f,20,60.0165836315,Set,2017_05_05_1327,
8,3,,,,,0,20,20,23,,,,,7,0,7,0,,,,,left,1.85022251451,LDS,f,20,60.0165836315,Set,2017_05_05_1327,
8,3,,,,,0,20,20,23,,,,,8,0,8,0,,,,,down,0.600238896179,LDS,f,20,60.0165836315,Set,2017_05_05_1327,
8,3,,,,,0,20,20,23,,,,,9,0,9,0,,,,,down,0.366886431155,LDS,f,20,60.0165836315,Set,2017_05_05_1327,
8,3,,,,,0,20,20,23,,,,,10,0,10,0,,,,,left,0.683573874259,LDS,f,20,60.0165836315,Set,2017_05_05_1327,
8,3,,,,,0,20,20,23,,,,,11,0,11,0,,,,,down,0.583548532006,LDS,f,20,60.0165836315,Set,2017_05_05_1327,
8,3,,,,,0,20,20,23,,,,,12,0,12,0,,,,,down,0.833555834681,LDS,f,20,60.0165836315,Set,2017_05_05_1327,
2,2,,,,,0,21,21,9,,,,,0,0,0,0,,,,,down,0.833398728471,LDS,f,20,60.0165836315,Set,2017_05_05_1327,
2,2,,,,,0,21,21,9,,,,,1,0,1,0,,,,,down,0.650227882958,LDS,f,20,60.0165836315,Set,2017_05_05_1327,
6,3,,,,,0,22,22,21,,,,,0,0,0,0,,,,,left,4.01687983901,LDS,f,20,60.0165836315,Set,2017_05_05_1327,
6,3,,,,,0,22,22,21,,,,,1,0,1,0,,,,,down,27.8499959342,LDS,f,20,60.0165836315,Set,2017_05_05_1327,
6,3,,,,,0,22,22,21,,,,,2,0,2,0,,,,,down,1.20022515926,LDS,f,20,60.0165836315,Set,2017_05_05_1327,
8,2,,,,,0,23,23,15,,,,,0,0,0,0,,,,,left,0.600225475049,LDS,f,20,60.0165836315,Set,2017_05_05_1327,
8,2,,,,,0,23,23,15,,,,,1,0,1,0,,,,,left,1.00023605406,LDS,f,20,60.0165836315,Set,2017_05_05_1327,
8,2,,,,,0,23,23,15,,,,,2,0,2,0,,,,,left,0.550224646096,LDS,f,20,60.0165836315,Set,2017_05_05_1327,
8,2,,,,,0,23,23,15,,,,,3,0,3,0,,,,,left,0.433552360977,LDS,f,20,60.0165836315,Set,2017_05_05_1327,
8,2,,,,,0,23,23,15,,,,,4,0,4,0,,,,,left,0.333557018901,LDS,f,20,60.0165836315,Set,2017_05_05_1327,
8,2,,,,,0,23,23,15,,,,,5,0,5,0,,,,,left,0.933572492679,LDS,f,20,60.0165836315,Set,2017_05_05_1327,
8,2,,,,,0,23,23,15,,,,,6,0,6,0,,,,,left,0.433562229453,LDS,f,20,60.0165836315,Set,2017_05_05_1327,
8,2,,,,,0,23,23,15,,,,,7,0,7,0,,,,,left,0.466918089245,LDS,f,20,60.0165836315,Set,2017_05_05_1327,
8,2,,,,,0,23,23,15,,,,,8,0,8,0,,,,,down,0.566903562838,LDS,f,20,60.0165836315,Set,2017_05_05_1327,
8,2,,,,,0,23,23,15,,,,,9,0,9,0,,,,,down,0.516930365629,LDS,f,20,60.0165836315,Set,2017_05_05_1327,
8,2,,,,,0,23,23,15,,,,,10,0,10,0,,,,,left,0.500216317101,LDS,f,20,60.0165836315,Set,2017_05_05_1327,
8,2,,,,,0,23,23,15,,,,,11,0,11,0,,,,,down,0.41690107598,LDS,f,20,60.0165836315,Set,2017_05_05_1327,
8,2,,,,,0,23,23,15,,,,,12,0,12,0,,,,,down,0.416902654935,LDS,f,20,60.0165836315,Set,2017_05_05_1327,
