number_of_fixational_trials,size,estimating_threshold.thisRepN,estimating_threshold.thisTrialN,estimating_threshold.thisN,estimating_threshold.thisIndex,trials_2.thisRepN,trials_2.thisTrialN,trials_2.thisN,trials_2.thisIndex,trials.thisRepN,trials.thisTrialN,trials.thisN,trials.thisIndex,trials_3.thisRepN,trials_3.thisTrialN,trials_3.thisN,trials_3.thisIndex,rating_up.response,rating_up.rt,rating_down.response,rating_down.rt,answer.keys,answer.rt,participant,gender,age,frameRate,expName,date,
,,0,0,0,0,,,,,,,,,,,,,0.17,12.135,1.0,4.187,,,M.N,F,24,59.9999052672,Set,2017_04_28_1457,
,,1,0,1,0,,,,,,,,,,,,,0.1,6.105,0.51,11.035,,,M.N,F,24,59.9999052672,Set,2017_04_28_1457,
,,2,0,2,0,,,,,,,,,,,,,0.12,5.747,0.4,13.497,,,M.N,F,24,59.9999052672,Set,2017_04_28_1457,
3,2,,,,,0,0,0,10,,,,,0,0,0,0,,,,,down,2.41691443152,M.N,F,24,59.9999052672,Set,2017_04_28_1457,
3,2,,,,,0,0,0,10,,,,,1,0,1,0,,,,,down,2.26687156278,M.N,F,24,59.9999052672,Set,2017_04_28_1457,
1,2,,,,,0,1,1,8,,,,,0,0,0,0,,,,,down,1.88364815127,M.N,F,24,59.9999052672,Set,2017_04_28_1457,
1,2,,,,,0,1,1,8,,,,,1,0,1,0,,,,,down,3.3168661154,M.N,F,24,59.9999052672,Set,2017_04_28_1457,
1,2,,,,,0,1,1,8,,,,,2,0,2,0,,,,,left,1.1169025104,M.N,F,24,59.9999052672,Set,2017_04_28_1457,
1,2,,,,,0,1,1,8,,,,,3,0,3,0,,,,,down,2.76687590496,M.N,F,24,59.9999052672,Set,2017_04_28_1457,
1,2,,,,,0,1,1,8,,,,,4,0,4,0,,,,,left,0.916886799736,M.N,F,24,59.9999052672,Set,2017_04_28_1457,
1,2,,,,,0,1,1,8,,,,,5,0,5,0,,,,,left,1.20022058047,M.N,F,24,59.9999052672,Set,2017_04_28_1457,
1,2,,,,,0,1,1,8,,,,,6,0,6,0,,,,,left,0.600227922609,M.N,F,24,59.9999052672,Set,2017_04_28_1457,
1,2,,,,,0,1,1,8,,,,,7,0,7,0,,,,,left,1.63358854561,M.N,F,24,59.9999052672,Set,2017_04_28_1457,
1,2,,,,,0,1,1,8,,,,,8,0,8,0,,,,,left,0.73353936107,M.N,F,24,59.9999052672,Set,2017_04_28_1457,
1,2,,,,,0,1,1,8,,,,,9,0,9,0,,,,,left,0.700283738784,M.N,F,24,59.9999052672,Set,2017_04_28_1457,
1,2,,,,,0,1,1,8,,,,,10,0,10,0,,,,,left,0.650221685733,M.N,F,24,59.9999052672,Set,2017_04_28_1457,
1,2,,,,,0,1,1,8,,,,,11,0,11,0,,,,,left,0.816898484045,M.N,F,24,59.9999052672,Set,2017_04_28_1457,
1,2,,,,,0,1,1,8,,,,,12,0,12,0,,,,,left,2.68356533494,M.N,F,24,59.9999052672,Set,2017_04_28_1457,
1,2,,,,,0,1,1,8,,,,,13,0,13,0,,,,,left,0.466930694791,M.N,F,24,59.9999052672,Set,2017_04_28_1457,
1,2,,,,,0,1,1,8,,,,,14,0,14,0,,,,,left,0.416909694672,M.N,F,24,59.9999052672,Set,2017_04_28_1457,
1,2,,,,,0,1,1,8,,,,,15,0,15,0,,,,,left,1.20022492259,M.N,F,24,59.9999052672,Set,2017_04_28_1457,
1,2,,,,,0,1,1,8,,,,,16,0,16,0,,,,,left,0.433537703153,M.N,F,24,59.9999052672,Set,2017_04_28_1457,
1,2,,,,,0,1,1,8,,,,,17,0,17,0,,,,,right,0.866995668912,M.N,F,24,59.9999052672,Set,2017_04_28_1457,
1,2,,,,,0,1,1,8,,,,,18,0,18,0,,,,,left,1.08350636082,M.N,F,24,59.9999052672,Set,2017_04_28_1457,
1,2,,,,,0,1,1,8,,,,,19,0,19,0,,,,,left,0.500234870036,M.N,F,24,59.9999052672,Set,2017_04_28_1457,
1,2,,,,,0,1,1,8,,,,,20,0,20,0,,,,,left,0.450226896297,M.N,F,24,59.9999052672,Set,2017_04_28_1457,
1,2,,,,,0,1,1,8,,,,,21,0,21,0,,,,,left,0.416890747147,M.N,F,24,59.9999052672,Set,2017_04_28_1457,
1,2,,,,,0,1,1,8,,,,,22,0,22,0,,,,,left,0.650229580497,M.N,F,24,59.9999052672,Set,2017_04_28_1457,
1,2,,,,,0,1,1,8,,,,,23,0,23,0,,,,,left,0.533597861475,M.N,F,24,59.9999052672,Set,2017_04_28_1457,
1,2,,,,,0,1,1,8,,,,,24,0,24,0,,,,,left,1.00022342257,M.N,F,24,59.9999052672,Set,2017_04_28_1457,
1,2,,,,,0,1,1,8,,,,,25,0,25,0,,,,,left,0.500230922655,M.N,F,24,59.9999052672,Set,2017_04_28_1457,
1,2,,,,,0,1,1,8,,,,,26,0,26,0,,,,,left,0.816928484244,M.N,F,24,59.9999052672,Set,2017_04_28_1457,
1,2,,,,,0,1,1,8,,,,,27,0,27,0,,,,,left,0.783552861132,M.N,F,24,59.9999052672,Set,2017_04_28_1457,
1,2,,,,,0,1,1,8,,,,,28,0,28,0,,,,,left,0.933390465303,M.N,F,24,59.9999052672,Set,2017_04_28_1457,
1,2,,,,,0,1,1,8,,,,,29,0,29,0,,,,,down,0.98360251938,M.N,F,24,59.9999052672,Set,2017_04_28_1457,
1,2,,,,,0,1,1,8,,,,,30,0,30,0,,,,,down,0.516916168359,M.N,F,24,59.9999052672,Set,2017_04_28_1457,
6,1,,,,,0,2,2,5,,,,,0,0,0,0,,,,,down,0.766897615627,M.N,F,24,59.9999052672,Set,2017_04_28_1457,
6,1,,,,,0,2,2,5,,,,,1,0,1,0,,,,,down,1.11689540508,M.N,F,24,59.9999052672,Set,2017_04_28_1457,
3,1,,,,,0,3,3,2,,,,,0,0,0,0,,,,,down,0.816922563157,M.N,F,24,59.9999052672,Set,2017_04_28_1457,
3,1,,,,,0,3,3,2,,,,,1,0,1,0,,,,,down,1.01689051031,M.N,F,24,59.9999052672,Set,2017_04_28_1457,
8,3,,,,,0,4,4,23,,,,,0,0,0,0,,,,,down,0.666944431723,M.N,F,24,59.9999052672,Set,2017_04_28_1457,
8,3,,,,,0,4,4,23,,,,,1,0,1,0,,,,,down,1.48360646679,M.N,F,24,59.9999052672,Set,2017_04_28_1457,
6,2,,,,,0,5,5,13,,,,,0,0,0,0,,,,,left,1.20027584399,M.N,F,24,59.9999052672,Set,2017_04_28_1457,
6,2,,,,,0,5,5,13,,,,,1,0,1,0,,,,,left,1.11688751029,M.N,F,24,59.9999052672,Set,2017_04_28_1457,
6,2,,,,,0,5,5,13,,,,,2,0,2,0,,,,,left,0.766910247301,M.N,F,24,59.9999052672,Set,2017_04_28_1457,
6,2,,,,,0,5,5,13,,,,,3,0,3,0,,,,,left,0.783578519215,M.N,F,24,59.9999052672,Set,2017_04_28_1457,
6,2,,,,,0,5,5,13,,,,,4,0,4,0,,,,,left,0.766901168274,M.N,F,24,59.9999052672,Set,2017_04_28_1457,
6,2,,,,,0,5,5,13,,,,,5,0,5,0,,,,,left,0.933764283633,M.N,F,24,59.9999052672,Set,2017_04_28_1457,
6,2,,,,,0,5,5,13,,,,,6,0,6,0,,,,,left,0.416913247289,M.N,F,24,59.9999052672,Set,2017_04_28_1457,
6,2,,,,,0,5,5,13,,,,,7,0,7,0,,,,,left,0.383759862569,M.N,F,24,59.9999052672,Set,2017_04_28_1457,
6,2,,,,,0,5,5,13,,,,,8,0,8,0,,,,,left,0.367057643045,M.N,F,24,59.9999052672,Set,2017_04_28_1457,
6,2,,,,,0,5,5,13,,,,,9,0,9,0,,,,,left,0.350317133736,M.N,F,24,59.9999052672,Set,2017_04_28_1457,
6,2,,,,,0,5,5,13,,,,,10,0,10,0,,,,,left,0.333316885837,M.N,F,24,59.9999052672,Set,2017_04_28_1457,
6,2,,,,,0,5,5,13,,,,,11,0,11,0,,,,,left,0.316899273515,M.N,F,24,59.9999052672,Set,2017_04_28_1457,
6,2,,,,,0,5,5,13,,,,,12,0,12,0,,,,,left,0.31689808931,M.N,F,24,59.9999052672,Set,2017_04_28_1457,
6,2,,,,,0,5,5,13,,,,,13,0,13,0,,,,,left,0.383535650501,M.N,F,24,59.9999052672,Set,2017_04_28_1457,
6,2,,,,,0,5,5,13,,,,,14,0,14,0,,,,,left,0.333711230662,M.N,F,24,59.9999052672,Set,2017_04_28_1457,
6,2,,,,,0,5,5,13,,,,,15,0,15,0,,,,,left,0.466895562975,M.N,F,24,59.9999052672,Set,2017_04_28_1457,
6,2,,,,,0,5,5,13,,,,,16,0,16,0,,,,,left,0.666945221223,M.N,F,24,59.9999052672,Set,2017_04_28_1457,
6,2,,,,,0,5,5,13,,,,,17,0,17,0,,,,,left,0.366877247056,M.N,F,24,59.9999052672,Set,2017_04_28_1457,
6,2,,,,,0,5,5,13,,,,,18,0,18,0,,,,,left,0.616890273464,M.N,F,24,59.9999052672,Set,2017_04_28_1457,
6,2,,,,,0,5,5,13,,,,,19,0,19,0,,,,,left,0.516901168274,M.N,F,24,59.9999052672,Set,2017_04_28_1457,
6,2,,,,,0,5,5,13,,,,,20,0,20,0,,,,,left,0.333570703369,M.N,F,24,59.9999052672,Set,2017_04_28_1457,
6,2,,,,,0,5,5,13,,,,,21,0,21,0,,,,,left,0.333563203312,M.N,F,24,59.9999052672,Set,2017_04_28_1457,
6,2,,,,,0,5,5,13,,,,,22,0,22,0,,,,,left,0.350229106814,M.N,F,24,59.9999052672,Set,2017_04_28_1457,
6,2,,,,,0,5,5,13,,,,,23,0,23,0,,,,,left,0.700226106797,M.N,F,24,59.9999052672,Set,2017_04_28_1457,
6,2,,,,,0,5,5,13,,,,,24,0,24,0,,,,,left,0.350242133223,M.N,F,24,59.9999052672,Set,2017_04_28_1457,
6,2,,,,,0,5,5,13,,,,,25,0,25,0,,,,,left,0.233557913831,M.N,F,24,59.9999052672,Set,2017_04_28_1457,
6,2,,,,,0,5,5,13,,,,,26,0,26,0,,,,,left,0.300212054077,M.N,F,24,59.9999052672,Set,2017_04_28_1457,
6,2,,,,,0,5,5,13,,,,,27,0,27,0,,,,,left,0.200238343736,M.N,F,24,59.9999052672,Set,2017_04_28_1457,
6,2,,,,,0,5,5,13,,,,,28,0,28,0,,,,,left,0.200234396354,M.N,F,24,59.9999052672,Set,2017_04_28_1457,
6,2,,,,,0,5,5,13,,,,,29,0,29,0,,,,,left,0.250289738848,M.N,F,24,59.9999052672,Set,2017_04_28_1457,
6,2,,,,,0,5,5,13,,,,,30,0,30,0,,,,,left,0.18357678238,M.N,F,24,59.9999052672,Set,2017_04_28_1457,
6,2,,,,,0,5,5,13,,,,,31,0,31,0,,,,,left,0.250232896331,M.N,F,24,59.9999052672,Set,2017_04_28_1457,
6,2,,,,,0,5,5,13,,,,,32,0,32,0,,,,,left,0.48358633506,M.N,F,24,59.9999052672,Set,2017_04_28_1457,
6,2,,,,,0,5,5,13,,,,,33,0,33,0,,,,,left,0.133614993159,M.N,F,24,59.9999052672,Set,2017_04_28_1457,
6,2,,,,,0,5,5,13,,,,,34,0,34,0,,,,,left,0.216729772364,M.N,F,24,59.9999052672,Set,2017_04_28_1457,
6,2,,,,,0,5,5,13,,,,,35,0,35,0,,,,,left,0.200063079392,M.N,F,24,59.9999052672,Set,2017_04_28_1457,
6,2,,,,,0,5,5,13,,,,,36,0,36,0,,,,,left,0.466890826123,M.N,F,24,59.9999052672,Set,2017_04_28_1457,
6,2,,,,,0,5,5,13,,,,,37,0,37,0,,,,,left,0.20020242242,M.N,F,24,59.9999052672,Set,2017_04_28_1457,
6,2,,,,,0,5,5,13,,,,,38,0,38,0,,,,,left,0.250236843742,M.N,F,24,59.9999052672,Set,2017_04_28_1457,
6,2,,,,,0,5,5,13,,,,,39,0,39,0,,,,,left,0.150235896348,M.N,F,24,59.9999052672,Set,2017_04_28_1457,
6,2,,,,,0,5,5,13,,,,,40,0,40,0,,,,,left,0.200241896382,M.N,F,24,59.9999052672,Set,2017_04_28_1457,
6,2,,,,,0,5,5,13,,,,,41,0,41,0,,,,,left,0.366928957927,M.N,F,24,59.9999052672,Set,2017_04_28_1457,
6,2,,,,,0,5,5,13,,,,,42,0,42,0,,,,,left,0.266868799634,M.N,F,24,59.9999052672,Set,2017_04_28_1457,
6,2,,,,,0,5,5,13,,,,,43,0,43,0,,,,,left,0.250254607003,M.N,F,24,59.9999052672,Set,2017_04_28_1457,
6,2,,,,,0,5,5,13,,,,,44,0,44,0,,,,,left,0.283625493234,M.N,F,24,59.9999052672,Set,2017_04_28_1457,
6,2,,,,,0,5,5,13,,,,,45,0,45,0,,,,,left,0.266965905554,M.N,F,24,59.9999052672,Set,2017_04_28_1457,
6,2,,,,,0,5,5,13,,,,,46,0,46,0,,,,,left,0.183571650734,M.N,F,24,59.9999052672,Set,2017_04_28_1457,
6,2,,,,,0,5,5,13,,,,,47,0,47,0,,,,,left,0.300232580543,M.N,F,24,59.9999052672,Set,2017_04_28_1457,
6,2,,,,,0,5,5,13,,,,,48,0,48,0,,,,,left,0.333552150638,M.N,F,24,59.9999052672,Set,2017_04_28_1457,
6,2,,,,,0,5,5,13,,,,,49,0,49,0,,,,,left,0.333623598475,M.N,F,24,59.9999052672,Set,2017_04_28_1457,
6,2,,,,,0,5,5,13,,,,,50,0,50,0,,,,,left,0.266913799918,M.N,F,24,59.9999052672,Set,2017_04_28_1457,
6,2,,,,,0,5,5,13,,,,,51,0,51,0,,,,,left,0.200293607282,M.N,F,24,59.9999052672,Set,2017_04_28_1457,
6,2,,,,,0,5,5,13,,,,,52,0,52,0,,,,,left,0.333626361651,M.N,F,24,59.9999052672,Set,2017_04_28_1457,
6,2,,,,,0,5,5,13,,,,,53,0,53,0,,,,,left,0.233566992829,M.N,F,24,59.9999052672,Set,2017_04_28_1457,
6,2,,,,,0,5,5,13,,,,,54,0,54,0,,,,,left,0.283558782248,M.N,F,24,59.9999052672,Set,2017_04_28_1457,
6,2,,,,,0,5,5,13,,,,,55,0,55,0,,,,,left,0.333575045515,M.N,F,24,59.9999052672,Set,2017_04_28_1457,
6,2,,,,,0,5,5,13,,,,,56,0,56,0,,,,,left,0.350226738374,M.N,F,24,59.9999052672,Set,2017_04_28_1457,
6,2,,,,,0,5,5,13,,,,,57,0,57,0,,,,,left,0.316956905503,M.N,F,24,59.9999052672,Set,2017_04_28_1457,
6,2,,,,,0,5,5,13,,,,,58,0,58,0,,,,,left,0.30023850163,M.N,F,24,59.9999052672,Set,2017_04_28_1457,
6,2,,,,,0,5,5,13,,,,,59,0,59,0,,,,,left,0.200231633149,M.N,F,24,59.9999052672,Set,2017_04_28_1457,
6,2,,,,,0,5,5,13,,,,,60,0,60,0,,,,,left,0.333401360112,M.N,F,24,59.9999052672,Set,2017_04_28_1457,
6,2,,,,,0,5,5,13,,,,,61,0,61,0,,,,,left,0.283553650632,M.N,F,24,59.9999052672,Set,2017_04_28_1457,
6,2,,,,,0,5,5,13,,,,,62,0,62,0,,,,,left,0.200208738272,M.N,F,24,59.9999052672,Set,2017_04_28_1457,
6,2,,,,,0,5,5,13,,,,,63,0,63,0,,,,,left,0.300250738568,M.N,F,24,59.9999052672,Set,2017_04_28_1457,
6,2,,,,,0,5,5,13,,,,,64,0,64,0,,,,,left,0.18369244106,M.N,F,24,59.9999052672,Set,2017_04_28_1457,
6,2,,,,,0,5,5,13,,,,,65,0,65,0,,,,,down,0.600249238545,M.N,F,24,59.9999052672,Set,2017_04_28_1457,
6,2,,,,,0,5,5,13,,,,,66,0,66,0,,,,,left,0.733692914742,M.N,F,24,59.9999052672,Set,2017_04_28_1457,
6,2,,,,,0,5,5,13,,,,,67,0,67,0,,,,,left,0.316889010282,M.N,F,24,59.9999052672,Set,2017_04_28_1457,
6,2,,,,,0,5,5,13,,,,,68,0,68,0,,,,,left,0.416895484028,M.N,F,24,59.9999052672,Set,2017_04_28_1457,
6,2,,,,,0,5,5,13,,,,,69,0,69,0,,,,,left,0.300251133303,M.N,F,24,59.9999052672,Set,2017_04_28_1457,
6,2,,,,,0,5,5,13,,,,,70,0,70,0,,,,,left,0.450233212119,M.N,F,24,59.9999052672,Set,2017_04_28_1457,
6,2,,,,,0,5,5,13,,,,,71,0,71,0,,,,,left,0.200247422734,M.N,F,24,59.9999052672,Set,2017_04_28_1457,
6,2,,,,,0,5,5,13,,,,,72,0,72,0,,,,,left,0.300262186007,M.N,F,24,59.9999052672,Set,2017_04_28_1457,
6,2,,,,,0,5,5,13,,,,,73,0,73,0,,,,,left,0.20023715953,M.N,F,24,59.9999052672,Set,2017_04_28_1457,
6,2,,,,,0,5,5,13,,,,,74,0,74,0,,,,,left,0.266914589418,M.N,F,24,59.9999052672,Set,2017_04_28_1457,
6,2,,,,,0,5,5,13,,,,,75,0,75,0,,,,,left,0.200232027913,M.N,F,24,59.9999052672,Set,2017_04_28_1457,
6,2,,,,,0,5,5,13,,,,,76,0,76,0,,,,,left,0.316885457665,M.N,F,24,59.9999052672,Set,2017_04_28_1457,
6,2,,,,,0,5,5,13,,,,,77,0,77,0,,,,,left,0.166734035534,M.N,F,24,59.9999052672,Set,2017_04_28_1457,
6,2,,,,,0,5,5,13,,,,,78,0,78,0,,,,,left,0.333552545344,M.N,F,24,59.9999052672,Set,2017_04_28_1457,
6,2,,,,,0,5,5,13,,,,,79,0,79,0,,,,,left,0.283546150575,M.N,F,24,59.9999052672,Set,2017_04_28_1457,
6,2,,,,,0,5,5,13,,,,,80,0,80,0,,,,,left,0.300229817367,M.N,F,24,59.9999052672,Set,2017_04_28_1457,
6,2,,,,,0,5,5,13,,,,,81,0,81,0,,,,,left,0.216893984005,M.N,F,24,59.9999052672,Set,2017_04_28_1457,
6,2,,,,,0,5,5,13,,,,,82,0,82,0,,,,,left,0.26689169454,M.N,F,24,59.9999052672,Set,2017_04_28_1457,
6,2,,,,,0,5,5,13,,,,,83,0,83,0,,,,,left,0.250216712011,M.N,F,24,59.9999052672,Set,2017_04_28_1457,
6,2,,,,,0,5,5,13,,,,,84,0,84,0,,,,,left,0.233572124445,M.N,F,24,59.9999052672,Set,2017_04_28_1457,
6,2,,,,,0,5,5,13,,,,,85,0,85,0,,,,,left,0.200249396439,M.N,F,24,59.9999052672,Set,2017_04_28_1457,
6,2,,,,,0,5,5,13,,,,,86,0,86,0,,,,,left,0.333566361252,M.N,F,24,59.9999052672,Set,2017_04_28_1457,
6,2,,,,,0,5,5,13,,,,,87,0,87,0,,,,,left,0.250231317361,M.N,F,24,59.9999052672,Set,2017_04_28_1457,
6,2,,,,,0,5,5,13,,,,,88,0,88,0,,,,,left,0.366899352462,M.N,F,24,59.9999052672,Set,2017_04_28_1457,
6,2,,,,,0,5,5,13,,,,,89,0,89,0,,,,,left,0.283585229801,M.N,F,24,59.9999052672,Set,2017_04_28_1457,
6,2,,,,,0,5,5,13,,,,,90,0,90,0,,,,,left,0.400236685819,M.N,F,24,59.9999052672,Set,2017_04_28_1457,
6,2,,,,,0,5,5,13,,,,,91,0,91,0,,,,,left,0.266884983954,M.N,F,24,59.9999052672,Set,2017_04_28_1457,
6,2,,,,,0,5,5,13,,,,,92,0,92,0,,,,,right,1.03354180846,M.N,F,24,59.9999052672,Set,2017_04_28_1457,
6,2,,,,,0,5,5,13,,,,,93,0,93,0,,,,,right,0.483595414087,M.N,F,24,59.9999052672,Set,2017_04_28_1457,
6,2,,,,,0,5,5,13,,,,,94,0,94,0,,,,,down,0.700225712091,M.N,F,24,59.9999052672,Set,2017_04_28_1457,
6,2,,,,,0,5,5,13,,,,,95,0,95,0,,,,,down,0.183618230018,M.N,F,24,59.9999052672,Set,2017_04_28_1457,
8,1,,,,,0,6,6,7,,,,,0,0,0,0,,,,,down,2.83358530875,M.N,F,24,59.9999052672,Set,2017_04_28_1457,
8,1,,,,,0,6,6,7,,,,,1,0,1,0,,,,,down,0.616904878814,M.N,F,24,59.9999052672,Set,2017_04_28_1457,
4,2,,,,,0,7,7,11,,,,,0,0,0,0,,,,,left,0.983576071856,M.N,F,24,59.9999052672,Set,2017_04_28_1457,
4,2,,,,,0,7,7,11,,,,,1,0,1,0,,,,,left,0.800237317424,M.N,F,24,59.9999052672,Set,2017_04_28_1457,
4,2,,,,,0,7,7,11,,,,,2,0,2,0,,,,,left,0.500237238448,M.N,F,24,59.9999052672,Set,2017_04_28_1457,
4,2,,,,,0,7,7,11,,,,,3,0,3,0,,,,,left,0.316906773573,M.N,F,24,59.9999052672,Set,2017_04_28_1457,
4,2,,,,,0,7,7,11,,,,,4,0,4,0,,,,,left,0.500249870121,M.N,F,24,59.9999052672,Set,2017_04_28_1457,
4,2,,,,,0,7,7,11,,,,,5,0,5,0,,,,,left,0.316900063015,M.N,F,24,59.9999052672,Set,2017_04_28_1457,
4,2,,,,,0,7,7,11,,,,,6,0,6,0,,,,,left,0.250217106746,M.N,F,24,59.9999052672,Set,2017_04_28_1457,
4,2,,,,,0,7,7,11,,,,,7,0,7,0,,,,,left,0.266912615712,M.N,F,24,59.9999052672,Set,2017_04_28_1457,
4,2,,,,,0,7,7,11,,,,,8,0,8,0,,,,,left,0.216903852503,M.N,F,24,59.9999052672,Set,2017_04_28_1457,
4,2,,,,,0,7,7,11,,,,,9,0,9,0,,,,,left,0.333581756102,M.N,F,24,59.9999052672,Set,2017_04_28_1457,
4,2,,,,,0,7,7,11,,,,,10,0,10,0,,,,,left,0.350222001522,M.N,F,24,59.9999052672,Set,2017_04_28_1457,
4,2,,,,,0,7,7,11,,,,,11,0,11,0,,,,,left,0.283651940787,M.N,F,24,59.9999052672,Set,2017_04_28_1457,
4,2,,,,,0,7,7,11,,,,,12,0,12,0,,,,,left,0.266986037284,M.N,F,24,59.9999052672,Set,2017_04_28_1457,
4,2,,,,,0,7,7,11,,,,,13,0,13,0,,,,,left,0.333570703369,M.N,F,24,59.9999052672,Set,2017_04_28_1457,
4,2,,,,,0,7,7,11,,,,,14,0,14,0,,,,,left,0.26695248441,M.N,F,24,59.9999052672,Set,2017_04_28_1457,
4,2,,,,,0,7,7,11,,,,,15,0,15,0,,,,,left,0.283571808628,M.N,F,24,59.9999052672,Set,2017_04_28_1457,
4,2,,,,,0,7,7,11,,,,,16,0,16,0,,,,,left,0.266925247386,M.N,F,24,59.9999052672,Set,2017_04_28_1457,
4,2,,,,,0,7,7,11,,,,,17,0,17,0,,,,,left,0.283579308714,M.N,F,24,59.9999052672,Set,2017_04_28_1457,
4,2,,,,,0,7,7,11,,,,,18,0,18,0,,,,,left,0.166898641939,M.N,F,24,59.9999052672,Set,2017_04_28_1457,
4,2,,,,,0,7,7,11,,,,,19,0,19,0,,,,,left,0.250251054356,M.N,F,24,59.9999052672,Set,2017_04_28_1457,
4,2,,,,,0,7,7,11,,,,,20,0,20,0,,,,,left,0.150248133257,M.N,F,24,59.9999052672,Set,2017_04_28_1457,
4,2,,,,,0,7,7,11,,,,,21,0,21,0,,,,,left,0.20025097538,M.N,F,24,59.9999052672,Set,2017_04_28_1457,
4,2,,,,,0,7,7,11,,,,,22,0,22,0,,,,,left,0.250234870036,M.N,F,24,59.9999052672,Set,2017_04_28_1457,
4,2,,,,,0,7,7,11,,,,,23,0,23,0,,,,,left,0.216906220943,M.N,F,24,59.9999052672,Set,2017_04_28_1457,
4,2,,,,,0,7,7,11,,,,,24,0,24,0,,,,,left,0.316891773458,M.N,F,24,59.9999052672,Set,2017_04_28_1457,
4,2,,,,,0,7,7,11,,,,,25,0,25,0,,,,,left,0.383559334878,M.N,F,24,59.9999052672,Set,2017_04_28_1457,
4,2,,,,,0,7,7,11,,,,,26,0,26,0,,,,,left,0.316898484045,M.N,F,24,59.9999052672,Set,2017_04_28_1457,
4,2,,,,,0,7,7,11,,,,,27,0,27,0,,,,,left,0.316980195115,M.N,F,24,59.9999052672,Set,2017_04_28_1457,
4,2,,,,,0,7,7,11,,,,,28,0,28,0,,,,,left,0.266915378888,M.N,F,24,59.9999052672,Set,2017_04_28_1457,
4,2,,,,,0,7,7,11,,,,,29,0,29,0,,,,,left,0.200230448943,M.N,F,24,59.9999052672,Set,2017_04_28_1457,
4,2,,,,,0,7,7,11,,,,,30,0,30,0,,,,,left,0.216856483748,M.N,F,24,59.9999052672,Set,2017_04_28_1457,
4,2,,,,,0,7,7,11,,,,,31,0,31,0,,,,,down,0.966896352445,M.N,F,24,59.9999052672,Set,2017_04_28_1457,
4,2,,,,,0,7,7,11,,,,,32,0,32,0,,,,,down,0.383558940142,M.N,F,24,59.9999052672,Set,2017_04_28_1457,
4,2,,,,,0,7,7,11,,,,,33,0,33,0,,,,,left,0.450227685797,M.N,F,24,59.9999052672,Set,2017_04_28_1457,
4,2,,,,,0,7,7,11,,,,,34,0,34,0,,,,,left,0.283584835066,M.N,F,24,59.9999052672,Set,2017_04_28_1457,
4,2,,,,,0,7,7,11,,,,,35,0,35,0,,,,,left,0.300244422717,M.N,F,24,59.9999052672,Set,2017_04_28_1457,
4,2,,,,,0,7,7,11,,,,,36,0,36,0,,,,,left,0.20028650196,M.N,F,24,59.9999052672,Set,2017_04_28_1457,
4,2,,,,,0,7,7,11,,,,,37,0,37,0,,,,,left,0.233393307426,M.N,F,24,59.9999052672,Set,2017_04_28_1457,
4,2,,,,,0,7,7,11,,,,,38,0,38,0,,,,,left,0.200227685767,M.N,F,24,59.9999052672,Set,2017_04_28_1457,
4,2,,,,,0,7,7,11,,,,,39,0,39,0,,,,,left,0.283565887541,M.N,F,24,59.9999052672,Set,2017_04_28_1457,
4,2,,,,,0,7,7,11,,,,,40,0,40,0,,,,,down,0.566991642583,M.N,F,24,59.9999052672,Set,2017_04_28_1457,
4,2,,,,,0,7,7,11,,,,,41,0,41,0,,,,,down,0.233575677092,M.N,F,24,59.9999052672,Set,2017_04_28_1457,
5,3,,,,,0,8,8,20,,,,,0,0,0,0,,,,,left,0.784167075879,M.N,F,24,59.9999052672,Set,2017_04_28_1457,
5,3,,,,,0,8,8,20,,,,,1,0,1,0,,,,,left,78.2161171366,M.N,F,24,59.9999052672,Set,2017_04_28_1457,
5,3,,,,,0,8,8,20,,,,,2,0,2,0,,,,,down,8.03348378174,M.N,F,24,59.9999052672,Set,2017_04_28_1457,
5,3,,,,,0,8,8,20,,,,,3,0,3,0,,,,,down,0.516932352708,M.N,F,24,59.9999052672,Set,2017_04_28_1457,
2,2,,,,,0,9,9,9,,,,,0,0,0,0,,,,,down,0.850239370076,M.N,F,24,59.9999052672,Set,2017_04_28_1457,
2,2,,,,,0,9,9,9,,,,,1,0,1,0,,,,,down,0.850223185756,M.N,F,24,59.9999052672,Set,2017_04_28_1457,
2,2,,,,,0,9,9,9,,,,,2,0,2,0,,,,,left,0.66691561573,M.N,F,24,59.9999052672,Set,2017_04_28_1457,
2,2,,,,,0,9,9,9,,,,,3,0,3,0,,,,,left,0.516914194654,M.N,F,24,59.9999052672,Set,2017_04_28_1457,
2,2,,,,,0,9,9,9,,,,,4,0,4,0,,,,,left,0.33355767696,M.N,F,24,59.9999052672,Set,2017_04_28_1457,
2,2,,,,,0,9,9,9,,,,,5,0,5,0,,,,,left,0.31689651034,M.N,F,24,59.9999052672,Set,2017_04_28_1457,
2,2,,,,,0,9,9,9,,,,,6,0,6,0,,,,,left,0.766890905041,M.N,F,24,59.9999052672,Set,2017_04_28_1457,
2,2,,,,,0,9,9,9,,,,,7,0,7,0,,,,,left,0.350261080748,M.N,F,24,59.9999052672,Set,2017_04_28_1457,
2,2,,,,,0,9,9,9,,,,,8,0,8,0,,,,,down,0.383552624291,M.N,F,24,59.9999052672,Set,2017_04_28_1457,
2,2,,,,,0,9,9,9,,,,,9,0,9,0,,,,,left,0.433572045469,M.N,F,24,59.9999052672,Set,2017_04_28_1457,
2,2,,,,,0,9,9,9,,,,,10,0,10,0,,,,,left,0.31693045795,M.N,F,24,59.9999052672,Set,2017_04_28_1457,
2,2,,,,,0,9,9,9,,,,,11,0,11,0,,,,,left,0.283575361304,M.N,F,24,59.9999052672,Set,2017_04_28_1457,
2,2,,,,,0,9,9,9,,,,,12,0,12,0,,,,,left,0.350228317344,M.N,F,24,59.9999052672,Set,2017_04_28_1457,
2,2,,,,,0,9,9,9,,,,,13,0,13,0,,,,,left,0.333578598191,M.N,F,24,59.9999052672,Set,2017_04_28_1457,
2,2,,,,,0,9,9,9,,,,,14,0,14,0,,,,,left,0.266918931564,M.N,F,24,59.9999052672,Set,2017_04_28_1457,
2,2,,,,,0,9,9,9,,,,,15,0,15,0,,,,,left,0.533556413808,M.N,F,24,59.9999052672,Set,2017_04_28_1457,
2,2,,,,,0,9,9,9,,,,,16,0,16,0,,,,,down,0.183589808788,M.N,F,24,59.9999052672,Set,2017_04_28_1457,
2,2,,,,,0,9,9,9,,,,,17,0,17,0,,,,,down,0.583555703284,M.N,F,24,59.9999052672,Set,2017_04_28_1457,
2,2,,,,,0,9,9,9,,,,,18,0,18,0,,,,,left,0.48353620313,M.N,F,24,59.9999052672,Set,2017_04_28_1457,
2,2,,,,,0,9,9,9,,,,,19,0,19,0,,,,,left,0.366913957841,M.N,F,24,59.9999052672,Set,2017_04_28_1457,
2,2,,,,,0,9,9,9,,,,,20,0,20,0,,,,,down,0.450224133121,M.N,F,24,59.9999052672,Set,2017_04_28_1457,
2,2,,,,,0,9,9,9,,,,,21,0,21,0,,,,,left,0.600232264755,M.N,F,24,59.9999052672,Set,2017_04_28_1457,
2,2,,,,,0,9,9,9,,,,,22,0,22,0,,,,,left,0.333552545344,M.N,F,24,59.9999052672,Set,2017_04_28_1457,
2,2,,,,,0,9,9,9,,,,,23,0,23,0,,,,,left,0.333562413842,M.N,F,24,59.9999052672,Set,2017_04_28_1457,
2,2,,,,,0,9,9,9,,,,,24,0,24,0,,,,,left,0.300190343405,M.N,F,24,59.9999052672,Set,2017_04_28_1457,
2,2,,,,,0,9,9,9,,,,,25,0,25,0,,,,,left,0.350233843725,M.N,F,24,59.9999052672,Set,2017_04_28_1457,
2,2,,,,,0,9,9,9,,,,,26,0,26,0,,,,,left,0.250235659507,M.N,F,24,59.9999052672,Set,2017_04_28_1457,
2,2,,,,,0,9,9,9,,,,,27,0,27,0,,,,,left,0.266911036771,M.N,F,24,59.9999052672,Set,2017_04_28_1457,
2,2,,,,,0,9,9,9,,,,,28,0,28,0,,,,,left,0.616892641905,M.N,F,24,59.9999052672,Set,2017_04_28_1457,
2,2,,,,,0,9,9,9,,,,,29,0,29,0,,,,,left,0.333576624456,M.N,F,24,59.9999052672,Set,2017_04_28_1457,
2,2,,,,,0,9,9,9,,,,,30,0,30,0,,,,,down,0.400228791055,M.N,F,24,59.9999052672,Set,2017_04_28_1457,
2,2,,,,,0,9,9,9,,,,,31,0,31,0,,,,,down,0.350253185956,M.N,F,24,59.9999052672,Set,2017_04_28_1457,
2,2,,,,,0,9,9,9,,,,,32,0,32,0,,,,,left,0.316902431427,M.N,F,24,59.9999052672,Set,2017_04_28_1457,
2,2,,,,,0,9,9,9,,,,,33,0,33,0,,,,,left,0.416922326316,M.N,F,24,59.9999052672,Set,2017_04_28_1457,
2,2,,,,,0,9,9,9,,,,,34,0,34,0,,,,,left,0.400387871079,M.N,F,24,59.9999052672,Set,2017_04_28_1457,
2,2,,,,,0,9,9,9,,,,,35,0,35,0,,,,,left,0.200308607367,M.N,F,24,59.9999052672,Set,2017_04_28_1457,
2,2,,,,,0,9,9,9,,,,,36,0,36,0,,,,,left,0.283571019158,M.N,F,24,59.9999052672,Set,2017_04_28_1457,
2,2,,,,,0,9,9,9,,,,,37,0,37,0,,,,,left,0.416891141882,M.N,F,24,59.9999052672,Set,2017_04_28_1457,
2,2,,,,,0,9,9,9,,,,,38,0,38,0,,,,,down,0.41688482606,M.N,F,24,59.9999052672,Set,2017_04_28_1457,
2,2,,,,,0,9,9,9,,,,,39,0,39,0,,,,,down,0.400295502011,M.N,F,24,59.9999052672,Set,2017_04_28_1457,
2,2,,,,,0,9,9,9,,,,,40,0,40,0,,,,,left,0.266889720835,M.N,F,24,59.9999052672,Set,2017_04_28_1457,
2,2,,,,,0,9,9,9,,,,,41,0,41,0,,,,,left,0.333574256045,M.N,F,24,59.9999052672,Set,2017_04_28_1457,
2,2,,,,,0,9,9,9,,,,,42,0,42,0,,,,,down,0.333571887604,M.N,F,24,59.9999052672,Set,2017_04_28_1457,
2,2,,,,,0,9,9,9,,,,,43,0,43,0,,,,,left,0.366900931433,M.N,F,24,59.9999052672,Set,2017_04_28_1457,
2,2,,,,,0,9,9,9,,,,,44,0,44,0,,,,,right,0.816888615576,M.N,F,24,59.9999052672,Set,2017_04_28_1457,
2,2,,,,,0,9,9,9,,,,,45,0,45,0,,,,,down,0.41685008895,M.N,F,24,59.9999052672,Set,2017_04_28_1457,
2,2,,,,,0,9,9,9,,,,,46,0,46,0,,,,,down,0.416878510237,M.N,F,24,59.9999052672,Set,2017_04_28_1457,
4,3,,,,,0,10,10,19,,,,,0,0,0,0,,,,,left,0.633703414816,M.N,F,24,59.9999052672,Set,2017_04_28_1457,
4,3,,,,,0,10,10,19,,,,,1,0,1,0,,,,,left,0.566909536748,M.N,F,24,59.9999052672,Set,2017_04_28_1457,
4,3,,,,,0,10,10,19,,,,,2,0,2,0,,,,,left,0.283555624337,M.N,F,24,59.9999052672,Set,2017_04_28_1457,
4,3,,,,,0,10,10,19,,,,,3,0,3,0,,,,,left,0.400234712142,M.N,F,24,59.9999052672,Set,2017_04_28_1457,
4,3,,,,,0,10,10,19,,,,,4,0,4,0,,,,,left,0.333569913899,M.N,F,24,59.9999052672,Set,2017_04_28_1457,
4,3,,,,,0,10,10,19,,,,,5,0,5,0,,,,,left,0.317591646686,M.N,F,24,59.9999052672,Set,2017_04_28_1457,
4,3,,,,,0,10,10,19,,,,,6,0,6,0,,,,,left,0.433568098088,M.N,F,24,59.9999052672,Set,2017_04_28_1457,
4,3,,,,,0,10,10,19,,,,,7,0,7,0,,,,,left,0.300251922774,M.N,F,24,59.9999052672,Set,2017_04_28_1457,
4,3,,,,,0,10,10,19,,,,,8,0,8,0,,,,,down,0.450247027999,M.N,F,24,59.9999052672,Set,2017_04_28_1457,
4,3,,,,,0,10,10,19,,,,,9,0,9,0,,,,,down,0.383566834935,M.N,F,24,59.9999052672,Set,2017_04_28_1457,
4,3,,,,,0,10,10,19,,,,,10,0,10,0,,,,,left,0.416910089378,M.N,F,24,59.9999052672,Set,2017_04_28_1457,
4,3,,,,,0,10,10,19,,,,,11,0,11,0,,,,,down,0.416896273498,M.N,F,24,59.9999052672,Set,2017_04_28_1457,
4,3,,,,,0,10,10,19,,,,,12,0,12,0,,,,,down,0.450239527971,M.N,F,24,59.9999052672,Set,2017_04_28_1457,
4,3,,,,,0,10,10,19,,,,,13,0,13,0,,,,,left,0.466901878797,M.N,F,24,59.9999052672,Set,2017_04_28_1457,
4,3,,,,,0,10,10,19,,,,,14,0,14,0,,,,,left,0.317291644635,M.N,F,24,59.9999052672,Set,2017_04_28_1457,
4,3,,,,,0,10,10,19,,,,,15,0,15,0,,,,,left,0.283566677041,M.N,F,24,59.9999052672,Set,2017_04_28_1457,
4,3,,,,,0,10,10,19,,,,,16,0,16,0,,,,,left,0.233566992829,M.N,F,24,59.9999052672,Set,2017_04_28_1457,
4,3,,,,,0,10,10,19,,,,,17,0,17,0,,,,,down,0.45021939624,M.N,F,24,59.9999052672,Set,2017_04_28_1457,
4,3,,,,,0,10,10,19,,,,,18,0,18,0,,,,,down,0.533400096931,M.N,F,24,59.9999052672,Set,2017_04_28_1457,
5,1,,,,,0,11,11,4,,,,,0,0,0,0,,,,,down,0.78358049292,M.N,F,24,59.9999052672,Set,2017_04_28_1457,
5,1,,,,,0,11,11,4,,,,,1,0,1,0,,,,,down,0.48356936124,M.N,F,24,59.9999052672,Set,2017_04_28_1457,
5,1,,,,,0,11,11,4,,,,,2,0,2,0,,,,,left,0.666889562912,M.N,F,24,59.9999052672,Set,2017_04_28_1457,
5,1,,,,,0,11,11,4,,,,,3,0,3,0,,,,,left,0.400233922672,M.N,F,24,59.9999052672,Set,2017_04_28_1457,
5,1,,,,,0,11,11,4,,,,,4,0,4,0,,,,,left,0.38340301803,M.N,F,24,59.9999052672,Set,2017_04_28_1457,
5,1,,,,,0,11,11,4,,,,,5,0,5,0,,,,,left,0.383571177052,M.N,F,24,59.9999052672,Set,2017_04_28_1457,
5,1,,,,,0,11,11,4,,,,,6,0,6,0,,,,,left,0.316909142013,M.N,F,24,59.9999052672,Set,2017_04_28_1457,
5,1,,,,,0,11,11,4,,,,,7,0,7,0,,,,,left,0.300220343604,M.N,F,24,59.9999052672,Set,2017_04_28_1457,
5,1,,,,,0,11,11,4,,,,,8,0,8,0,,,,,down,0.333561229636,M.N,F,24,59.9999052672,Set,2017_04_28_1457,
5,1,,,,,0,11,11,4,,,,,9,0,9,0,,,,,down,0.516889720835,M.N,F,24,59.9999052672,Set,2017_04_28_1457,
8,2,,,,,0,12,12,15,,,,,0,0,0,0,,,,,down,0.700261633378,M.N,F,24,59.9999052672,Set,2017_04_28_1457,
8,2,,,,,0,12,12,15,,,,,1,0,1,0,,,,,left,0.566931642184,M.N,F,24,59.9999052672,Set,2017_04_28_1457,
8,2,,,,,0,12,12,15,,,,,2,0,2,0,,,,,left,0.383547492704,M.N,F,24,59.9999052672,Set,2017_04_28_1457,
8,2,,,,,0,12,12,15,,,,,3,0,3,0,,,,,left,0.300255475449,M.N,F,24,59.9999052672,Set,2017_04_28_1457,
8,2,,,,,0,12,12,15,,,,,4,0,4,0,,,,,left,0.283582861361,M.N,F,24,59.9999052672,Set,2017_04_28_1457,
8,2,,,,,0,12,12,15,,,,,5,0,5,0,,,,,left,0.333569124399,M.N,F,24,59.9999052672,Set,2017_04_28_1457,
8,2,,,,,0,12,12,15,,,,,6,0,6,0,,,,,down,0.233914363605,M.N,F,24,59.9999052672,Set,2017_04_28_1457,
8,2,,,,,0,12,12,15,,,,,7,0,7,0,,,,,left,0.20021781727,M.N,F,24,59.9999052672,Set,2017_04_28_1457,
8,2,,,,,0,12,12,15,,,,,8,0,8,0,,,,,left,0.450260449172,M.N,F,24,59.9999052672,Set,2017_04_28_1457,
8,2,,,,,0,12,12,15,,,,,9,0,9,0,,,,,left,0.200230448943,M.N,F,24,59.9999052672,Set,2017_04_28_1457,
8,2,,,,,0,12,12,15,,,,,10,0,10,0,,,,,left,0.216913326265,M.N,F,24,59.9999052672,Set,2017_04_28_1457,
8,2,,,,,0,12,12,15,,,,,11,0,11,0,,,,,left,0.150240238465,M.N,F,24,59.9999052672,Set,2017_04_28_1457,
8,2,,,,,0,12,12,15,,,,,12,0,12,0,,,,,down,0.0668921681936,M.N,F,24,59.9999052672,Set,2017_04_28_1457,
8,2,,,,,0,12,12,15,,,,,13,0,13,0,,,,,down,0.733565413888,M.N,F,24,59.9999052672,Set,2017_04_28_1457,
7,1,,,,,0,13,13,6,,,,,0,0,0,0,,,,,down,0.533599440416,M.N,F,24,59.9999052672,Set,2017_04_28_1457,
7,1,,,,,0,13,13,6,,,,,1,0,1,0,,,,,down,0.583565571753,M.N,F,24,59.9999052672,Set,2017_04_28_1457,
7,3,,,,,0,14,14,22,,,,,0,0,0,0,,,,,left,0.48358712456,M.N,F,24,59.9999052672,Set,2017_04_28_1457,
7,3,,,,,0,14,14,22,,,,,1,0,1,0,,,,,left,0.683372702013,M.N,F,24,59.9999052672,Set,2017_04_28_1457,
7,3,,,,,0,14,14,22,,,,,2,0,2,0,,,,,left,0.550260212302,M.N,F,24,59.9999052672,Set,2017_04_28_1457,
7,3,,,,,0,14,14,22,,,,,3,0,3,0,,,,,left,0.266928405297,M.N,F,24,59.9999052672,Set,2017_04_28_1457,
7,3,,,,,0,14,14,22,,,,,4,0,4,0,,,,,left,0.300234554248,M.N,F,24,59.9999052672,Set,2017_04_28_1457,
7,3,,,,,0,14,14,22,,,,,5,0,5,0,,,,,left,0.266904326185,M.N,F,24,59.9999052672,Set,2017_04_28_1457,
7,3,,,,,0,14,14,22,,,,,6,0,6,0,,,,,left,0.40027458081,M.N,F,24,59.9999052672,Set,2017_04_28_1457,
7,3,,,,,0,14,14,22,,,,,7,0,7,0,,,,,left,0.400211027765,M.N,F,24,59.9999052672,Set,2017_04_28_1457,
7,3,,,,,0,14,14,22,,,,,8,0,8,0,,,,,left,0.316926115804,M.N,F,24,59.9999052672,Set,2017_04_28_1457,
7,3,,,,,0,14,14,22,,,,,9,0,9,0,,,,,left,0.200349265535,M.N,F,24,59.9999052672,Set,2017_04_28_1457,
7,3,,,,,0,14,14,22,,,,,10,0,10,0,,,,,left,0.20023637003,M.N,F,24,59.9999052672,Set,2017_04_28_1457,
7,3,,,,,0,14,14,22,,,,,11,0,11,0,,,,,left,0.183564150706,M.N,F,24,59.9999052672,Set,2017_04_28_1457,
7,3,,,,,0,14,14,22,,,,,12,0,12,0,,,,,left,0.20025334385,M.N,F,24,59.9999052672,Set,2017_04_28_1457,
7,3,,,,,0,14,14,22,,,,,13,0,13,0,,,,,left,0.183579940291,M.N,F,24,59.9999052672,Set,2017_04_28_1457,
7,3,,,,,0,14,14,22,,,,,14,0,14,0,,,,,left,0.200237554236,M.N,F,24,59.9999052672,Set,2017_04_28_1457,
7,3,,,,,0,14,14,22,,,,,15,0,15,0,,,,,left,0.250251843827,M.N,F,24,59.9999052672,Set,2017_04_28_1457,
7,3,,,,,0,14,14,22,,,,,16,0,16,0,,,,,left,0.350215290935,M.N,F,24,59.9999052672,Set,2017_04_28_1457,
7,3,,,,,0,14,14,22,,,,,17,0,17,0,,,,,left,0.433304017351,M.N,F,24,59.9999052672,Set,2017_04_28_1457,
7,3,,,,,0,14,14,22,,,,,18,0,18,0,,,,,left,0.283616808942,M.N,F,24,59.9999052672,Set,2017_04_28_1457,
7,3,,,,,0,14,14,22,,,,,19,0,19,0,,,,,left,0.383672625117,M.N,F,24,59.9999052672,Set,2017_04_28_1457,
7,3,,,,,0,14,14,22,,,,,20,0,20,0,,,,,left,0.250218290952,M.N,F,24,59.9999052672,Set,2017_04_28_1457,
7,3,,,,,0,14,14,22,,,,,21,0,21,0,,,,,left,0.650227212085,M.N,F,24,59.9999052672,Set,2017_04_28_1457,
7,3,,,,,0,14,14,22,,,,,22,0,22,0,,,,,down,0.233597782499,M.N,F,24,59.9999052672,Set,2017_04_28_1457,
7,3,,,,,0,14,14,22,,,,,23,0,23,0,,,,,down,0.366934484278,M.N,F,24,59.9999052672,Set,2017_04_28_1457,
1,3,,,,,0,15,15,16,,,,,0,0,0,0,,,,,down,0.683568098088,M.N,F,24,59.9999052672,Set,2017_04_28_1457,
1,3,,,,,0,15,15,16,,,,,1,0,1,0,,,,,down,0.400228001556,M.N,F,24,59.9999052672,Set,2017_04_28_1457,
3,3,,,,,0,16,16,18,,,,,0,0,0,0,,,,,down,0.766901957744,M.N,F,24,59.9999052672,Set,2017_04_28_1457,
3,3,,,,,0,16,16,18,,,,,1,0,1,0,,,,,down,0.300223896251,M.N,F,24,59.9999052672,Set,2017_04_28_1457,
4,1,,,,,0,17,17,3,,,,,0,0,0,0,,,,,down,1.00021513307,M.N,F,24,59.9999052672,Set,2017_04_28_1457,
4,1,,,,,0,17,17,3,,,,,1,0,1,0,,,,,down,0.300249554333,M.N,F,24,59.9999052672,Set,2017_04_28_1457,
6,3,,,,,0,18,18,21,,,,,0,0,0,0,,,,,down,0.633575124462,M.N,F,24,59.9999052672,Set,2017_04_28_1457,
6,3,,,,,0,18,18,21,,,,,1,0,1,0,,,,,down,0.216906220914,M.N,F,24,59.9999052672,Set,2017_04_28_1457,
5,2,,,,,0,19,19,12,,,,,0,0,0,0,,,,,down,0.466929905291,M.N,F,24,59.9999052672,Set,2017_04_28_1457,
5,2,,,,,0,19,19,12,,,,,1,0,1,0,,,,,down,0.100262264954,M.N,F,24,59.9999052672,Set,2017_04_28_1457,
7,2,,,,,0,20,20,14,,,,,0,0,0,0,,,,,left,1.26690787883,M.N,F,24,59.9999052672,Set,2017_04_28_1457,
7,2,,,,,0,20,20,14,,,,,1,0,1,0,,,,,down,0.166897852469,M.N,F,24,59.9999052672,Set,2017_04_28_1457,
7,2,,,,,0,20,20,14,,,,,2,0,2,0,,,,,down,0.183573229704,M.N,F,24,59.9999052672,Set,2017_04_28_1457,
2,3,,,,,0,21,21,17,,,,,0,0,0,0,,,,,down,1.25022618574,M.N,F,24,59.9999052672,Set,2017_04_28_1457,
2,3,,,,,0,21,21,17,,,,,1,0,1,0,,,,,down,0.183582308702,M.N,F,24,59.9999052672,Set,2017_04_28_1457,
1,1,,,,,0,22,22,0,,,,,0,0,0,0,,,,,down,0.816917431541,M.N,F,24,59.9999052672,Set,2017_04_28_1457,
1,1,,,,,0,22,22,0,,,,,1,0,1,0,,,,,down,0.200259264937,M.N,F,24,59.9999052672,Set,2017_04_28_1457,
2,1,,,,,0,23,23,1,,,,,0,0,0,0,,,,,left,0.733561466477,M.N,F,24,59.9999052672,Set,2017_04_28_1457,
2,1,,,,,0,23,23,1,,,,,1,0,1,0,,,,,left,0.350228712079,M.N,F,24,59.9999052672,Set,2017_04_28_1457,
2,1,,,,,0,23,23,1,,,,,2,0,2,0,,,,,left,0.316977037204,M.N,F,24,59.9999052672,Set,2017_04_28_1457,
2,1,,,,,0,23,23,1,,,,,3,0,3,0,,,,,left,0.333590440336,M.N,F,24,59.9999052672,Set,2017_04_28_1457,
2,1,,,,,0,23,23,1,,,,,4,0,4,0,,,,,left,0.283578913979,M.N,F,24,59.9999052672,Set,2017_04_28_1457,
2,1,,,,,0,23,23,1,,,,,5,0,5,0,,,,,left,0.26690472092,M.N,F,24,59.9999052672,Set,2017_04_28_1457,
2,1,,,,,0,23,23,1,,,,,6,0,6,0,,,,,left,0.266886562924,M.N,F,24,59.9999052672,Set,2017_04_28_1457,
2,1,,,,,0,23,23,1,,,,,7,0,7,0,,,,,left,0.300230212102,M.N,F,24,59.9999052672,Set,2017_04_28_1457,
2,1,,,,,0,23,23,1,,,,,8,0,8,0,,,,,left,0.300234554248,M.N,F,24,59.9999052672,Set,2017_04_28_1457,
2,1,,,,,0,23,23,1,,,,,9,0,9,0,,,,,left,0.350240949017,M.N,F,24,59.9999052672,Set,2017_04_28_1457,
2,1,,,,,0,23,23,1,,,,,10,0,10,0,,,,,left,0.233583571884,M.N,F,24,59.9999052672,Set,2017_04_28_1457,
2,1,,,,,0,23,23,1,,,,,11,0,11,0,,,,,left,0.300233764749,M.N,F,24,59.9999052672,Set,2017_04_28_1457,
2,1,,,,,0,23,23,1,,,,,12,0,12,0,,,,,left,0.267158933188,M.N,F,24,59.9999052672,Set,2017_04_28_1457,
2,1,,,,,0,23,23,1,,,,,13,0,13,0,,,,,left,0.21691214203,M.N,F,24,59.9999052672,Set,2017_04_28_1457,
2,1,,,,,0,23,23,1,,,,,14,0,14,0,,,,,down,0.333586098219,M.N,F,24,59.9999052672,Set,2017_04_28_1457,
2,1,,,,,0,23,23,1,,,,,15,0,15,0,,,,,down,0.466888062918,M.N,F,24,59.9999052672,Set,2017_04_28_1457,
