number_of_fixational_trials,size,estimating_threshold.thisRepN,estimating_threshold.thisTrialN,estimating_threshold.thisN,estimating_threshold.thisIndex,trials_2.thisRepN,trials_2.thisTrialN,trials_2.thisN,trials_2.thisIndex,trials.thisRepN,trials.thisTrialN,trials.thisN,trials.thisIndex,trials_3.thisRepN,trials_3.thisTrialN,trials_3.thisN,trials_3.thisIndex,rating_up.response,rating_up.rt,rating_down.response,rating_down.rt,answer.keys,answer.rt,participant,gender,age,frameRate,expName,date,
,,0,0,0,0,,,,,,,,,,,,,0.16,24.435,0.08,28.834,,,MB,f,19,59.994126855,Set,2017_05_17_1412,
,,1,0,1,0,,,,,,,,,,,,,0.06,15.218,0.05,34.38,,,MB,f,19,59.994126855,Set,2017_05_17_1412,
,,2,0,2,0,,,,,,,,,,,,,0.06,14.984,0.05,34.198,,,MB,f,19,59.994126855,Set,2017_05_17_1412,
7,3,,,,,0,0,0,22,,,,,0,0,0,0,,,,,right,7.53350033436,MB,f,19,59.994126855,Set,2017_05_17_1412,
7,3,,,,,0,0,0,22,,,,,1,0,1,0,,,,,right,5.23351075547,MB,f,19,59.994126855,Set,2017_05_17_1412,
7,3,,,,,0,0,0,22,,,,,2,0,2,0,,,,,down,0.816865865228,MB,f,19,59.994126855,Set,2017_05_17_1412,
7,3,,,,,0,0,0,22,,,,,3,0,3,0,,,,,down,0.666901668097,MB,f,19,59.994126855,Set,2017_05_17_1412,
7,3,,,,,0,0,0,22,,,,,4,0,4,0,,,,,left,0.633598703338,MB,f,19,59.994126855,Set,2017_05_17_1412,
7,3,,,,,0,0,0,22,,,,,5,0,5,0,,,,,left,0.433660914277,MB,f,19,59.994126855,Set,2017_05_17_1412,
7,3,,,,,0,0,0,22,,,,,6,0,6,0,,,,,left,0.316911654983,MB,f,19,59.994126855,Set,2017_05_17_1412,
7,3,,,,,0,0,0,22,,,,,7,0,7,0,,,,,down,0.733551808342,MB,f,19,59.994126855,Set,2017_05_17_1412,
7,3,,,,,0,0,0,22,,,,,8,0,8,0,,,,,left,0.316912049719,MB,f,19,59.994126855,Set,2017_05_17_1412,
7,3,,,,,0,0,0,22,,,,,9,0,9,0,,,,,left,0.20024331726,MB,f,19,59.994126855,Set,2017_05_17_1412,
7,3,,,,,0,0,0,22,,,,,10,0,10,0,,,,,left,0.20022792244,MB,f,19,59.994126855,Set,2017_05_17_1412,
7,3,,,,,0,0,0,22,,,,,11,0,11,0,,,,,left,0.200237001438,MB,f,19,59.994126855,Set,2017_05_17_1412,
7,3,,,,,0,0,0,22,,,,,12,0,12,0,,,,,left,0.300427739421,MB,f,19,59.994126855,Set,2017_05_17_1412,
7,3,,,,,0,0,0,22,,,,,13,0,13,0,,,,,left,0.316910865513,MB,f,19,59.994126855,Set,2017_05_17_1412,
7,3,,,,,0,0,0,22,,,,,14,0,14,0,,,,,down,0.683574663737,MB,f,19,59.994126855,Set,2017_05_17_1412,
7,3,,,,,0,0,0,22,,,,,15,0,15,0,,,,,down,0.53357612429,MB,f,19,59.994126855,Set,2017_05_17_1412,
1,2,,,,,0,1,1,8,,,,,0,0,0,0,,,,,down,1.65018643535,MB,f,19,59.994126855,Set,2017_05_17_1412,
1,2,,,,,0,1,1,8,,,,,1,0,1,0,,,,,down,0.850235540915,MB,f,19,59.994126855,Set,2017_05_17_1412,
1,2,,,,,0,1,1,8,,,,,2,0,2,0,,,,,left,0.583585242741,MB,f,19,59.994126855,Set,2017_05_17_1412,
1,2,,,,,0,1,1,8,,,,,3,0,3,0,,,,,left,0.350262383145,MB,f,19,59.994126855,Set,2017_05_17_1412,
1,2,,,,,0,1,1,8,,,,,4,0,4,0,,,,,left,0.316904154926,MB,f,19,59.994126855,Set,2017_05_17_1412,
1,2,,,,,0,1,1,8,,,,,5,0,5,0,,,,,down,0.483582005894,MB,f,19,59.994126855,Set,2017_05_17_1412,
1,2,,,,,0,1,1,8,,,,,6,0,6,0,,,,,down,0.583546163543,MB,f,19,59.994126855,Set,2017_05_17_1412,
6,3,,,,,0,2,2,21,,,,,0,0,0,0,,,,,right,4.66687758901,MB,f,19,59.994126855,Set,2017_05_17_1412,
6,3,,,,,0,2,2,21,,,,,1,0,1,0,,,,,down,0.633569887403,MB,f,19,59.994126855,Set,2017_05_17_1412,
6,3,,,,,0,2,2,21,,,,,2,0,2,0,,,,,down,0.400266370008,MB,f,19,59.994126855,Set,2017_05_17_1412,
7,1,,,,,0,3,3,6,,,,,0,0,0,0,,,,,down,0.450226935587,MB,f,19,59.994126855,Set,2017_05_17_1412,
7,1,,,,,0,3,3,6,,,,,1,0,1,0,,,,,left,2.65021051443,MB,f,19,59.994126855,Set,2017_05_17_1412,
7,1,,,,,0,3,3,6,,,,,2,0,2,0,,,,,down,0.550224251376,MB,f,19,59.994126855,Set,2017_05_17_1412,
7,1,,,,,0,3,3,6,,,,,3,0,3,0,,,,,down,0.283575137437,MB,f,19,59.994126855,Set,2017_05_17_1412,
4,1,,,,,0,4,4,3,,,,,0,0,0,0,,,,,down,0.833594124386,MB,f,19,59.994126855,Set,2017_05_17_1412,
4,1,,,,,0,4,4,3,,,,,1,0,1,0,,,,,down,1.31689468122,MB,f,19,59.994126855,Set,2017_05_17_1412,
8,1,,,,,0,5,5,7,,,,,0,0,0,0,,,,,right,0.733580624306,MB,f,19,59.994126855,Set,2017_05_17_1412,
8,1,,,,,0,5,5,7,,,,,1,0,1,0,,,,,right,0.433562229446,MB,f,19,59.994126855,Set,2017_05_17_1412,
8,1,,,,,0,5,5,7,,,,,2,0,2,0,,,,,down,0.850234751415,MB,f,19,59.994126855,Set,2017_05_17_1412,
8,1,,,,,0,5,5,7,,,,,3,0,3,0,,,,,down,0.466888878524,MB,f,19,59.994126855,Set,2017_05_17_1412,
8,1,,,,,0,5,5,7,,,,,4,0,4,0,,,,,right,1.05021596182,MB,f,19,59.994126855,Set,2017_05_17_1412,
8,1,,,,,0,5,5,7,,,,,5,0,5,0,,,,,down,0.483565821603,MB,f,19,59.994126855,Set,2017_05_17_1412,
8,1,,,,,0,5,5,7,,,,,6,0,6,0,,,,,left,0.500241580419,MB,f,19,59.994126855,Set,2017_05_17_1412,
8,1,,,,,0,5,5,7,,,,,7,0,7,0,,,,,left,0.566899615427,MB,f,19,59.994126855,Set,2017_05_17_1412,
8,1,,,,,0,5,5,7,,,,,8,0,8,0,,,,,down,0.433711046149,MB,f,19,59.994126855,Set,2017_05_17_1412,
8,1,,,,,0,5,5,7,,,,,9,0,9,0,,,,,left,0.366888799588,MB,f,19,59.994126855,Set,2017_05_17_1412,
8,1,,,,,0,5,5,7,,,,,10,0,10,0,,,,,left,0.433562624181,MB,f,19,59.994126855,Set,2017_05_17_1412,
8,1,,,,,0,5,5,7,,,,,11,0,11,0,,,,,left,0.300216159201,MB,f,19,59.994126855,Set,2017_05_17_1412,
8,1,,,,,0,5,5,7,,,,,12,0,12,0,,,,,left,0.35024896203,MB,f,19,59.994126855,Set,2017_05_17_1412,
8,1,,,,,0,5,5,7,,,,,13,0,13,0,,,,,left,0.333605177089,MB,f,19,59.994126855,Set,2017_05_17_1412,
8,1,,,,,0,5,5,7,,,,,14,0,14,0,,,,,left,0.533578097995,MB,f,19,59.994126855,Set,2017_05_17_1412,
8,1,,,,,0,5,5,7,,,,,15,0,15,0,,,,,down,0.450233646145,MB,f,19,59.994126855,Set,2017_05_17_1412,
8,1,,,,,0,5,5,7,,,,,16,0,16,0,,,,,left,0.383633243066,MB,f,19,59.994126855,Set,2017_05_17_1412,
8,1,,,,,0,5,5,7,,,,,17,0,17,0,,,,,down,0.583653532638,MB,f,19,59.994126855,Set,2017_05_17_1412,
8,1,,,,,0,5,5,7,,,,,18,0,18,0,,,,,left,0.400220580283,MB,f,19,59.994126855,Set,2017_05_17_1412,
8,1,,,,,0,5,5,7,,,,,19,0,19,0,,,,,down,0.433554334653,MB,f,19,59.994126855,Set,2017_05_17_1412,
8,1,,,,,0,5,5,7,,,,,20,0,20,0,,,,,down,0.400219396077,MB,f,19,59.994126855,Set,2017_05_17_1412,
8,1,,,,,0,5,5,7,,,,,21,0,21,0,,,,,left,0.366910115525,MB,f,19,59.994126855,Set,2017_05_17_1412,
8,1,,,,,0,5,5,7,,,,,22,0,22,0,,,,,left,0.283571979497,MB,f,19,59.994126855,Set,2017_05_17_1412,
8,1,,,,,0,5,5,7,,,,,23,0,23,0,,,,,left,0.46692558928,MB,f,19,59.994126855,Set,2017_05_17_1412,
8,1,,,,,0,5,5,7,,,,,24,0,24,0,,,,,down,0.58356747948,MB,f,19,59.994126855,Set,2017_05_17_1412,
8,1,,,,,0,5,5,7,,,,,25,0,25,0,,,,,left,0.333827020513,MB,f,19,59.994126855,Set,2017_05_17_1412,
8,1,,,,,0,5,5,7,,,,,26,0,26,0,,,,,down,0.600247580442,MB,f,19,59.994126855,Set,2017_05_17_1412,
8,1,,,,,0,5,5,7,,,,,27,0,27,0,,,,,left,0.516897207533,MB,f,19,59.994126855,Set,2017_05_17_1412,
8,1,,,,,0,5,5,7,,,,,28,0,28,0,,,,,down,0.516895628592,MB,f,19,59.994126855,Set,2017_05_17_1412,
8,1,,,,,0,5,5,7,,,,,29,0,29,0,,,,,down,0.783721980435,MB,f,19,59.994126855,Set,2017_05_17_1412,
8,1,,,,,0,5,5,7,,,,,30,0,30,0,,,,,left,0.4502502252,MB,f,19,59.994126855,Set,2017_05_17_1412,
8,1,,,,,0,5,5,7,,,,,31,0,31,0,,,,,left,0.450228119793,MB,f,19,59.994126855,Set,2017_05_17_1412,
8,1,,,,,0,5,5,7,,,,,32,0,32,0,,,,,left,0.316883233754,MB,f,19,59.994126855,Set,2017_05_17_1412,
8,1,,,,,0,5,5,7,,,,,33,0,33,0,,,,,left,0.233567203191,MB,f,19,59.994126855,Set,2017_05_17_1412,
8,1,,,,,0,5,5,7,,,,,34,0,34,0,,,,,down,0.350230804033,MB,f,19,59.994126855,Set,2017_05_17_1412,
8,1,,,,,0,5,5,7,,,,,35,0,35,0,,,,,left,0.350208303891,MB,f,19,59.994126855,Set,2017_05_17_1412,
8,1,,,,,0,5,5,7,,,,,36,0,36,0,,,,,down,0.350233172474,MB,f,19,59.994126855,Set,2017_05_17_1412,
8,1,,,,,0,5,5,7,,,,,37,0,37,0,,,,,down,0.400219396077,MB,f,19,59.994126855,Set,2017_05_17_1412,
8,1,,,,,0,5,5,7,,,,,38,0,38,0,,,,,left,0.733563650516,MB,f,19,59.994126855,Set,2017_05_17_1412,
8,1,,,,,0,5,5,7,,,,,39,0,39,0,,,,,left,0.483544110932,MB,f,19,59.994126855,Set,2017_05_17_1412,
8,1,,,,,0,5,5,7,,,,,40,0,40,0,,,,,left,0.316891918046,MB,f,19,59.994126855,Set,2017_05_17_1412,
8,1,,,,,0,5,5,7,,,,,41,0,41,0,,,,,down,0.500293291261,MB,f,19,59.994126855,Set,2017_05_17_1412,
8,1,,,,,0,5,5,7,,,,,42,0,42,0,,,,,down,0.383573242667,MB,f,19,59.994126855,Set,2017_05_17_1412,
3,3,,,,,0,6,6,18,,,,,0,0,0,0,,,,,right,3.9836033218,MB,f,19,59.994126855,Set,2017_05_17_1412,
3,3,,,,,0,6,6,18,,,,,1,0,1,0,,,,,down,0.55023451458,MB,f,19,59.994126855,Set,2017_05_17_1412,
3,3,,,,,0,6,6,18,,,,,2,0,2,0,,,,,down,0.350225277682,MB,f,19,59.994126855,Set,2017_05_17_1412,
6,2,,,,,0,7,7,13,,,,,0,0,0,0,,,,,down,0.783573558496,MB,f,19,59.994126855,Set,2017_05_17_1412,
6,2,,,,,0,7,7,13,,,,,1,0,1,0,,,,,down,2.61686452312,MB,f,19,59.994126855,Set,2017_05_17_1412,
6,2,,,,,0,7,7,13,,,,,2,0,2,0,,,,,right,0.466895194346,MB,f,19,59.994126855,Set,2017_05_17_1412,
6,2,,,,,0,7,7,13,,,,,3,0,3,0,,,,,down,0.43357644006,MB,f,19,59.994126855,Set,2017_05_17_1412,
6,2,,,,,0,7,7,13,,,,,4,0,4,0,,,,,down,0.466918878723,MB,f,19,59.994126855,Set,2017_05_17_1412,
6,2,,,,,0,7,7,13,,,,,5,0,5,0,,,,,left,0.366905378643,MB,f,19,59.994126855,Set,2017_05_17_1412,
6,2,,,,,0,7,7,13,,,,,6,0,6,0,,,,,left,0.350310936105,MB,f,19,59.994126855,Set,2017_05_17_1412,
6,2,,,,,0,7,7,13,,,,,7,0,7,0,,,,,down,0.516898391768,MB,f,19,59.994126855,Set,2017_05_17_1412,
6,2,,,,,0,7,7,13,,,,,8,0,8,0,,,,,left,0.333602808649,MB,f,19,59.994126855,Set,2017_05_17_1412,
6,2,,,,,0,7,7,13,,,,,9,0,9,0,,,,,down,0.583573795302,MB,f,19,59.994126855,Set,2017_05_17_1412,
6,2,,,,,0,7,7,13,,,,,10,0,10,0,,,,,down,0.566903168103,MB,f,19,59.994126855,Set,2017_05_17_1412,
3,1,,,,,0,8,8,2,,,,,0,0,0,0,,,,,right,1.88355784785,MB,f,19,59.994126855,Set,2017_05_17_1412,
3,1,,,,,0,8,8,2,,,,,1,0,1,0,,,,,down,0.666900483862,MB,f,19,59.994126855,Set,2017_05_17_1412,
3,1,,,,,0,8,8,2,,,,,2,0,2,0,,,,,down,0.550232540874,MB,f,19,59.994126855,Set,2017_05_17_1412,
3,1,,,,,0,8,8,2,,,,,3,0,3,0,,,,,left,0.4168872601,MB,f,19,59.994126855,Set,2017_05_17_1412,
3,1,,,,,0,8,8,2,,,,,4,0,4,0,,,,,left,0.35023672512,MB,f,19,59.994126855,Set,2017_05_17_1412,
3,1,,,,,0,8,8,2,,,,,5,0,5,0,,,,,left,2.56687869428,MB,f,19,59.994126855,Set,2017_05_17_1412,
3,1,,,,,0,8,8,2,,,,,6,0,6,0,,,,,down,0.766885562742,MB,f,19,59.994126855,Set,2017_05_17_1412,
3,1,,,,,0,8,8,2,,,,,7,0,7,0,,,,,down,0.583594716503,MB,f,19,59.994126855,Set,2017_05_17_1412,
2,1,,,,,0,9,9,1,,,,,0,0,0,0,,,,,down,1.46690387864,MB,f,19,59.994126855,Set,2017_05_17_1412,
2,1,,,,,0,9,9,1,,,,,1,0,1,0,,,,,down,0.566903957602,MB,f,19,59.994126855,Set,2017_05_17_1412,
2,2,,,,,0,10,10,9,,,,,0,0,0,0,,,,,down,2.61687439162,MB,f,19,59.994126855,Set,2017_05_17_1412,
2,2,,,,,0,10,10,9,,,,,1,0,1,0,,,,,right,0.400217817107,MB,f,19,59.994126855,Set,2017_05_17_1412,
2,2,,,,,0,10,10,9,,,,,2,0,2,0,,,,,left,0.533533887181,MB,f,19,59.994126855,Set,2017_05_17_1412,
2,2,,,,,0,10,10,9,,,,,3,0,3,0,,,,,down,0.350241856708,MB,f,19,59.994126855,Set,2017_05_17_1412,
2,2,,,,,0,10,10,9,,,,,4,0,4,0,,,,,left,0.366891562764,MB,f,19,59.994126855,Set,2017_05_17_1412,
2,2,,,,,0,10,10,9,,,,,5,0,5,0,,,,,left,0.383569295285,MB,f,19,59.994126855,Set,2017_05_17_1412,
2,2,,,,,0,10,10,9,,,,,6,0,6,0,,,,,down,0.50032171249,MB,f,19,59.994126855,Set,2017_05_17_1412,
2,2,,,,,0,10,10,9,,,,,7,0,7,0,,,,,down,0.700228317175,MB,f,19,59.994126855,Set,2017_05_17_1412,
3,2,,,,,0,11,11,10,,,,,0,0,0,0,,,,,down,1.36701906353,MB,f,19,59.994126855,Set,2017_05_17_1412,
3,2,,,,,0,11,11,10,,,,,1,0,1,0,,,,,down,0.550230567198,MB,f,19,59.994126855,Set,2017_05_17_1412,
8,3,,,,,0,12,12,23,,,,,0,0,0,0,,,,,left,0.950223777647,MB,f,19,59.994126855,Set,2017_05_17_1412,
8,3,,,,,0,12,12,23,,,,,1,0,1,0,,,,,left,1.35017435631,MB,f,19,59.994126855,Set,2017_05_17_1412,
8,3,,,,,0,12,12,23,,,,,2,0,2,0,,,,,left,0.483621874533,MB,f,19,59.994126855,Set,2017_05_17_1412,
8,3,,,,,0,12,12,23,,,,,3,0,3,0,,,,,left,0.333562545246,MB,f,19,59.994126855,Set,2017_05_17_1412,
8,3,,,,,0,12,12,23,,,,,4,0,4,0,,,,,left,0.300241422519,MB,f,19,59.994126855,Set,2017_05_17_1412,
8,3,,,,,0,12,12,23,,,,,5,0,5,0,,,,,left,0.650405910361,MB,f,19,59.994126855,Set,2017_05_17_1412,
8,3,,,,,0,12,12,23,,,,,6,0,6,0,,,,,left,0.333557808393,MB,f,19,59.994126855,Set,2017_05_17_1412,
8,3,,,,,0,12,12,23,,,,,7,0,7,0,,,,,left,0.333568071597,MB,f,19,59.994126855,Set,2017_05_17_1412,
8,3,,,,,0,12,12,23,,,,,8,0,8,0,,,,,left,0.366912483936,MB,f,19,59.994126855,Set,2017_05_17_1412,
8,3,,,,,0,12,12,23,,,,,9,0,9,0,,,,,left,0.533566255792,MB,f,19,59.994126855,Set,2017_05_17_1412,
8,3,,,,,0,12,12,23,,,,,10,0,10,0,,,,,down,0.366919983993,MB,f,19,59.994126855,Set,2017_05_17_1412,
8,3,,,,,0,12,12,23,,,,,11,0,11,0,,,,,left,0.550263330544,MB,f,19,59.994126855,Set,2017_05_17_1412,
8,3,,,,,0,12,12,23,,,,,12,0,12,0,,,,,left,0.58356905845,MB,f,19,59.994126855,Set,2017_05_17_1412,
8,3,,,,,0,12,12,23,,,,,13,0,13,0,,,,,left,0.433556703094,MB,f,19,59.994126855,Set,2017_05_17_1412,
8,3,,,,,0,12,12,23,,,,,14,0,14,0,,,,,left,0.366897089116,MB,f,19,59.994126855,Set,2017_05_17_1412,
8,3,,,,,0,12,12,23,,,,,15,0,15,0,,,,,left,0.383579163783,MB,f,19,59.994126855,Set,2017_05_17_1412,
8,3,,,,,0,12,12,23,,,,,16,0,16,0,,,,,down,0.450082855765,MB,f,19,59.994126855,Set,2017_05_17_1412,
8,3,,,,,0,12,12,23,,,,,17,0,17,0,,,,,left,0.400237159338,MB,f,19,59.994126855,Set,2017_05_17_1412,
8,3,,,,,0,12,12,23,,,,,18,0,18,0,,,,,left,0.416917655035,MB,f,19,59.994126855,Set,2017_05_17_1412,
8,3,,,,,0,12,12,23,,,,,19,0,19,0,,,,,left,0.916986734373,MB,f,19,59.994126855,Set,2017_05_17_1412,
8,3,,,,,0,12,12,23,,,,,20,0,20,0,,,,,left,0.330730685993,MB,f,19,59.994126855,Set,2017_05_17_1412,
8,3,,,,,0,12,12,23,,,,,21,0,21,0,,,,,left,1.48352042658,MB,f,19,59.994126855,Set,2017_05_17_1412,
8,3,,,,,0,12,12,23,,,,,22,0,22,0,,,,,down,0.550228988228,MB,f,19,59.994126855,Set,2017_05_17_1412,
8,3,,,,,0,12,12,23,,,,,23,0,23,0,,,,,down,0.400227685575,MB,f,19,59.994126855,Set,2017_05_17_1412,
8,3,,,,,0,12,12,23,,,,,24,0,24,0,,,,,left,3.55021398814,MB,f,19,59.994126855,Set,2017_05_17_1412,
8,3,,,,,0,12,12,23,,,,,25,0,25,0,,,,,down,0.916893181187,MB,f,19,59.994126855,Set,2017_05_17_1412,
8,3,,,,,0,12,12,23,,,,,26,0,26,0,,,,,down,0.433563413681,MB,f,19,59.994126855,Set,2017_05_17_1412,
4,3,,,,,0,13,13,19,,,,,0,0,0,0,,,,,right,0.450326015125,MB,f,19,59.994126855,Set,2017_05_17_1412,
4,3,,,,,0,13,13,19,,,,,1,0,1,0,,,,,down,0.550212014437,MB,f,19,59.994126855,Set,2017_05_17_1412,
4,3,,,,,0,13,13,19,,,,,2,0,2,0,,,,,down,0.500354081101,MB,f,19,59.994126855,Set,2017_05_17_1412,
4,3,,,,,0,13,13,19,,,,,3,0,3,0,,,,,right,0.383572058461,MB,f,19,59.994126855,Set,2017_05_17_1412,
4,3,,,,,0,13,13,19,,,,,4,0,4,0,,,,,down,0.466900325962,MB,f,19,59.994126855,Set,2017_05_17_1412,
4,3,,,,,0,13,13,19,,,,,5,0,5,0,,,,,right,0.466905852314,MB,f,19,59.994126855,Set,2017_05_17_1412,
4,3,,,,,0,13,13,19,,,,,6,0,6,0,,,,,right,0.533567045291,MB,f,19,59.994126855,Set,2017_05_17_1412,
4,3,,,,,0,13,13,19,,,,,7,0,7,0,,,,,right,0.683580584824,MB,f,19,59.994126855,Set,2017_05_17_1412,
4,3,,,,,0,13,13,19,,,,,8,0,8,0,,,,,down,1.88364547995,MB,f,19,59.994126855,Set,2017_05_17_1412,
4,3,,,,,0,13,13,19,,,,,9,0,9,0,,,,,down,2.35018619848,MB,f,19,59.994126855,Set,2017_05_17_1412,
4,3,,,,,0,13,13,19,,,,,10,0,10,0,,,,,right,0.550239251432,MB,f,19,59.994126855,Set,2017_05_17_1412,
4,3,,,,,0,13,13,19,,,,,11,0,11,0,,,,,down,0.616898075968,MB,f,19,59.994126855,Set,2017_05_17_1412,
4,3,,,,,0,13,13,19,,,,,12,0,12,0,,,,,down,0.350242251472,MB,f,19,59.994126855,Set,2017_05_17_1412,
6,1,,,,,0,14,14,5,,,,,0,0,0,0,,,,,down,0.400265580538,MB,f,19,59.994126855,Set,2017_05_17_1412,
6,1,,,,,0,14,14,5,,,,,1,0,1,0,,,,,down,0.333570045303,MB,f,19,59.994126855,Set,2017_05_17_1412,
7,2,,,,,0,15,15,14,,,,,0,0,0,0,,,,,right,0.416905418097,MB,f,19,59.994126855,Set,2017_05_17_1412,
7,2,,,,,0,15,15,14,,,,,1,0,1,0,,,,,down,0.700236211938,MB,f,19,59.994126855,Set,2017_05_17_1412,
7,2,,,,,0,15,15,14,,,,,2,0,2,0,,,,,right,0.450225356617,MB,f,19,59.994126855,Set,2017_05_17_1412,
7,2,,,,,0,15,15,14,,,,,3,0,3,0,,,,,right,0.350066592509,MB,f,19,59.994126855,Set,2017_05_17_1412,
7,2,,,,,0,15,15,14,,,,,4,0,4,0,,,,,right,0.266916352411,MB,f,19,59.994126855,Set,2017_05_17_1412,
7,2,,,,,0,15,15,14,,,,,5,0,5,0,,,,,down,0.533608098165,MB,f,19,59.994126855,Set,2017_05_17_1412,
7,2,,,,,0,15,15,14,,,,,6,0,6,0,,,,,down,0.550226619787,MB,f,19,59.994126855,Set,2017_05_17_1412,
7,2,,,,,0,15,15,14,,,,,7,0,7,0,,,,,right,0.88358034796,MB,f,19,59.994126855,Set,2017_05_17_1412,
7,2,,,,,0,15,15,14,,,,,8,0,8,0,,,,,down,0.700216080266,MB,f,19,59.994126855,Set,2017_05_17_1412,
7,2,,,,,0,15,15,14,,,,,9,0,9,0,,,,,right,0.566885799548,MB,f,19,59.994126855,Set,2017_05_17_1412,
7,2,,,,,0,15,15,14,,,,,10,0,10,0,,,,,right,3.25024967256,MB,f,19,59.994126855,Set,2017_05_17_1412,
7,2,,,,,0,15,15,14,,,,,11,0,11,0,,,,,down,0.616917812935,MB,f,19,59.994126855,Set,2017_05_17_1412,
7,2,,,,,0,15,15,14,,,,,12,0,12,0,,,,,down,0.383574821637,MB,f,19,59.994126855,Set,2017_05_17_1412,
5,2,,,,,0,16,16,12,,,,,0,0,0,0,,,,,right,0.666888641688,MB,f,19,59.994126855,Set,2017_05_17_1412,
5,2,,,,,0,16,16,12,,,,,1,0,1,0,,,,,right,0.600065210921,MB,f,19,59.994126855,Set,2017_05_17_1412,
5,2,,,,,0,16,16,12,,,,,2,0,2,0,,,,,right,0.366903010203,MB,f,19,59.994126855,Set,2017_05_17_1412,
5,2,,,,,0,16,16,12,,,,,3,0,3,0,,,,,right,0.51690233915,MB,f,19,59.994126855,Set,2017_05_17_1412,
5,2,,,,,0,16,16,12,,,,,4,0,4,0,,,,,right,0.766890694329,MB,f,19,59.994126855,Set,2017_05_17_1412,
5,2,,,,,0,16,16,12,,,,,5,0,5,0,,,,,right,0.533612835017,MB,f,19,59.994126855,Set,2017_05_17_1412,
5,2,,,,,0,16,16,12,,,,,6,0,6,0,,,,,right,0.350233961944,MB,f,19,59.994126855,Set,2017_05_17_1412,
5,2,,,,,0,16,16,12,,,,,7,0,7,0,,,,,right,2.46688058903,MB,f,19,59.994126855,Set,2017_05_17_1412,
5,2,,,,,0,16,16,12,,,,,8,0,8,0,,,,,right,0.500229343481,MB,f,19,59.994126855,Set,2017_05_17_1412,
5,2,,,,,0,16,16,12,,,,,9,0,9,0,,,,,right,1.76688477327,MB,f,19,59.994126855,Set,2017_05_17_1412,
5,2,,,,,0,16,16,12,,,,,10,0,10,0,,,,,down,0.416890812747,MB,f,19,59.994126855,Set,2017_05_17_1412,
5,2,,,,,0,16,16,12,,,,,11,0,11,0,,,,,right,0.43357801903,MB,f,19,59.994126855,Set,2017_05_17_1412,
5,2,,,,,0,16,16,12,,,,,12,0,12,0,,,,,down,0.416907391802,MB,f,19,59.994126855,Set,2017_05_17_1412,
5,2,,,,,0,16,16,12,,,,,13,0,13,0,,,,,right,0.550221488171,MB,f,19,59.994126855,Set,2017_05_17_1412,
5,2,,,,,0,16,16,12,,,,,14,0,14,0,,,,,right,0.916908181302,MB,f,19,59.994126855,Set,2017_05_17_1412,
5,2,,,,,0,16,16,12,,,,,15,0,15,0,,,,,right,0.55023372508,MB,f,19,59.994126855,Set,2017_05_17_1412,
5,2,,,,,0,16,16,12,,,,,16,0,16,0,,,,,right,0.600246001501,MB,f,19,59.994126855,Set,2017_05_17_1412,
5,2,,,,,0,16,16,12,,,,,17,0,17,0,,,,,right,0.933571308444,MB,f,19,59.994126855,Set,2017_05_17_1412,
5,2,,,,,0,16,16,12,,,,,18,0,18,0,,,,,right,0.383554689935,MB,f,19,59.994126855,Set,2017_05_17_1412,
5,2,,,,,0,16,16,12,,,,,19,0,19,0,,,,,right,0.200230685616,MB,f,19,59.994126855,Set,2017_05_17_1412,
5,2,,,,,0,16,16,12,,,,,20,0,20,0,,,,,right,0.433572887414,MB,f,19,59.994126855,Set,2017_05_17_1412,
5,2,,,,,0,16,16,12,,,,,21,0,21,0,,,,,right,0.200242133025,MB,f,19,59.994126855,Set,2017_05_17_1412,
5,2,,,,,0,16,16,12,,,,,22,0,22,0,,,,,right,0.366886036412,MB,f,19,59.994126855,Set,2017_05_17_1412,
5,2,,,,,0,16,16,12,,,,,23,0,23,0,,,,,down,0.83359136121,MB,f,19,59.994126855,Set,2017_05_17_1412,
5,2,,,,,0,16,16,12,,,,,24,0,24,0,,,,,left,1.50021829081,MB,f,19,59.994126855,Set,2017_05_17_1412,
5,2,,,,,0,16,16,12,,,,,25,0,25,0,,,,,right,0.300237869873,MB,f,19,59.994126855,Set,2017_05_17_1412,
5,2,,,,,0,16,16,12,,,,,26,0,26,0,,,,,down,0.433564203151,MB,f,19,59.994126855,Set,2017_05_17_1412,
5,2,,,,,0,16,16,12,,,,,27,0,27,0,,,,,left,0.566912641836,MB,f,19,59.994126855,Set,2017_05_17_1412,
5,2,,,,,0,16,16,12,,,,,28,0,28,0,,,,,left,1.21694512886,MB,f,19,59.994126855,Set,2017_05_17_1412,
5,2,,,,,0,16,16,12,,,,,29,0,29,0,,,,,right,0.366897089116,MB,f,19,59.994126855,Set,2017_05_17_1412,
5,2,,,,,0,16,16,12,,,,,30,0,30,0,,,,,down,0.450244698848,MB,f,19,59.994126855,Set,2017_05_17_1412,
5,2,,,,,0,16,16,12,,,,,31,0,31,0,,,,,right,0.583567479509,MB,f,19,59.994126855,Set,2017_05_17_1412,
5,2,,,,,0,16,16,12,,,,,32,0,32,0,,,,,down,0.500233685627,MB,f,19,59.994126855,Set,2017_05_17_1412,
5,2,,,,,0,16,16,12,,,,,33,0,33,0,,,,,right,0.566907904984,MB,f,19,59.994126855,Set,2017_05_17_1412,
5,2,,,,,0,16,16,12,,,,,34,0,34,0,,,,,down,0.416897128598,MB,f,19,59.994126855,Set,2017_05_17_1412,
5,2,,,,,0,16,16,12,,,,,35,0,35,0,,,,,down,0.300191290647,MB,f,19,59.994126855,Set,2017_05_17_1412,
5,3,,,,,0,17,17,20,,,,,0,0,0,0,,,,,right,0.683593216498,MB,f,19,59.994126855,Set,2017_05_17_1412,
5,3,,,,,0,17,17,20,,,,,1,0,1,0,,,,,down,0.63356357158,MB,f,19,59.994126855,Set,2017_05_17_1412,
5,3,,,,,0,17,17,20,,,,,2,0,2,0,,,,,down,0.466889668023,MB,f,19,59.994126855,Set,2017_05_17_1412,
5,1,,,,,0,18,18,4,,,,,0,0,0,0,,,,,right,0.516901944415,MB,f,19,59.994126855,Set,2017_05_17_1412,
5,1,,,,,0,18,18,4,,,,,1,0,1,0,,,,,right,0.616898075968,MB,f,19,59.994126855,Set,2017_05_17_1412,
5,1,,,,,0,18,18,4,,,,,2,0,2,0,,,,,right,0.400257685775,MB,f,19,59.994126855,Set,2017_05_17_1412,
5,1,,,,,0,18,18,4,,,,,3,0,3,0,,,,,right,0.416900681244,MB,f,19,59.994126855,Set,2017_05_17_1412,
5,1,,,,,0,18,18,4,,,,,4,0,4,0,,,,,down,0.600236527767,MB,f,19,59.994126855,Set,2017_05_17_1412,
5,1,,,,,0,18,18,4,,,,,5,0,5,0,,,,,right,0.433574466384,MB,f,19,59.994126855,Set,2017_05_17_1412,
5,1,,,,,0,18,18,4,,,,,6,0,6,0,,,,,down,1.10022744874,MB,f,19,59.994126855,Set,2017_05_17_1412,
5,1,,,,,0,18,18,4,,,,,7,0,7,0,,,,,down,0.550243988313,MB,f,19,59.994126855,Set,2017_05_17_1412,
1,3,,,,,0,19,19,16,,,,,0,0,0,0,,,,,right,1.38355034782,MB,f,19,59.994126855,Set,2017_05_17_1412,
1,3,,,,,0,19,19,16,,,,,1,0,1,0,,,,,down,0.966876641614,MB,f,19,59.994126855,Set,2017_05_17_1412,
1,3,,,,,0,19,19,16,,,,,2,0,2,0,,,,,right,1.10028744908,MB,f,19,59.994126855,Set,2017_05_17_1412,
1,3,,,,,0,19,19,16,,,,,3,0,3,0,,,,,left,1.18356203209,MB,f,19,59.994126855,Set,2017_05_17_1412,
1,3,,,,,0,19,19,16,,,,,4,0,4,0,,,,,left,0.366950773634,MB,f,19,59.994126855,Set,2017_05_17_1412,
1,3,,,,,0,19,19,16,,,,,5,0,5,0,,,,,down,0.433585124352,MB,f,19,59.994126855,Set,2017_05_17_1412,
1,3,,,,,0,19,19,16,,,,,6,0,6,0,,,,,down,0.550316620327,MB,f,19,59.994126855,Set,2017_05_17_1412,
1,3,,,,,0,19,19,16,,,,,7,0,7,0,,,,,left,0.433585913823,MB,f,19,59.994126855,Set,2017_05_17_1412,
1,3,,,,,0,19,19,16,,,,,8,0,8,0,,,,,left,0.316920339275,MB,f,19,59.994126855,Set,2017_05_17_1412,
1,3,,,,,0,19,19,16,,,,,9,0,9,0,,,,,left,0.350222514506,MB,f,19,59.994126855,Set,2017_05_17_1412,
1,3,,,,,0,19,19,16,,,,,10,0,10,0,,,,,down,0.883560611022,MB,f,19,59.994126855,Set,2017_05_17_1412,
1,3,,,,,0,19,19,16,,,,,11,0,11,0,,,,,left,0.416891602217,MB,f,19,59.994126855,Set,2017_05_17_1412,
1,3,,,,,0,19,19,16,,,,,12,0,12,0,,,,,left,0.533556782058,MB,f,19,59.994126855,Set,2017_05_17_1412,
1,3,,,,,0,19,19,16,,,,,13,0,13,0,,,,,left,0.316917970835,MB,f,19,59.994126855,Set,2017_05_17_1412,
1,3,,,,,0,19,19,16,,,,,14,0,14,0,,,,,left,1.15020972493,MB,f,19,59.994126855,Set,2017_05_17_1412,
1,3,,,,,0,19,19,16,,,,,15,0,15,0,,,,,down,0.36689511541,MB,f,19,59.994126855,Set,2017_05_17_1412,
1,3,,,,,0,19,19,16,,,,,16,0,16,0,,,,,left,0.316961392149,MB,f,19,59.994126855,Set,2017_05_17_1412,
1,3,,,,,0,19,19,16,,,,,17,0,17,0,,,,,left,0.350221725035,MB,f,19,59.994126855,Set,2017_05_17_1412,
1,3,,,,,0,19,19,16,,,,,18,0,18,0,,,,,down,0.516874312685,MB,f,19,59.994126855,Set,2017_05_17_1412,
1,3,,,,,0,19,19,16,,,,,19,0,19,0,,,,,down,0.733528123994,MB,f,19,59.994126855,Set,2017_05_17_1412,
4,2,,,,,0,20,20,11,,,,,0,0,0,0,,,,,right,3.51685615466,MB,f,19,59.994126855,Set,2017_05_17_1412,
4,2,,,,,0,20,20,11,,,,,1,0,1,0,,,,,right,1.46691690502,MB,f,19,59.994126855,Set,2017_05_17_1412,
4,2,,,,,0,20,20,11,,,,,2,0,2,0,,,,,down,0.983586348011,MB,f,19,59.994126855,Set,2017_05_17_1412,
4,2,,,,,0,20,20,11,,,,,3,0,3,0,,,,,down,0.366919589258,MB,f,19,59.994126855,Set,2017_05_17_1412,
2,3,,,,,0,21,21,17,,,,,0,0,0,0,,,,,down,0.550230567169,MB,f,19,59.994126855,Set,2017_05_17_1412,
2,3,,,,,0,21,21,17,,,,,1,0,1,0,,,,,down,0.866893931205,MB,f,19,59.994126855,Set,2017_05_17_1412,
1,1,,,,,0,22,22,0,,,,,0,0,0,0,,,,,right,0.500236054067,MB,f,19,59.994126855,Set,2017_05_17_1412,
1,1,,,,,0,22,22,0,,,,,1,0,1,0,,,,,left,0.400241501484,MB,f,19,59.994126855,Set,2017_05_17_1412,
1,1,,,,,0,22,22,0,,,,,2,0,2,0,,,,,down,0.450242725143,MB,f,19,59.994126855,Set,2017_05_17_1412,
1,1,,,,,0,22,22,0,,,,,3,0,3,0,,,,,left,0.36690972076,MB,f,19,59.994126855,Set,2017_05_17_1412,
1,1,,,,,0,22,22,0,,,,,4,0,4,0,,,,,down,0.500235264568,MB,f,19,59.994126855,Set,2017_05_17_1412,
1,1,,,,,0,22,22,0,,,,,5,0,5,0,,,,,right,0.516901944415,MB,f,19,59.994126855,Set,2017_05_17_1412,
1,1,,,,,0,22,22,0,,,,,6,0,6,0,,,,,down,0.366891957528,MB,f,19,59.994126855,Set,2017_05_17_1412,
1,1,,,,,0,22,22,0,,,,,7,0,7,0,,,,,down,0.433426833886,MB,f,19,59.994126855,Set,2017_05_17_1412,
1,1,,,,,0,22,22,0,,,,,8,0,8,0,,,,,left,0.700236211967,MB,f,19,59.994126855,Set,2017_05_17_1412,
1,1,,,,,0,22,22,0,,,,,9,0,9,0,,,,,left,0.450253383111,MB,f,19,59.994126855,Set,2017_05_17_1412,
1,1,,,,,0,22,22,0,,,,,10,0,10,0,,,,,left,0.500236843538,MB,f,19,59.994126855,Set,2017_05_17_1412,
1,1,,,,,0,22,22,0,,,,,11,0,11,0,,,,,left,0.383597716514,MB,f,19,59.994126855,Set,2017_05_17_1412,
1,1,,,,,0,22,22,0,,,,,12,0,12,0,,,,,left,0.300253264693,MB,f,19,59.994126855,Set,2017_05_17_1412,
1,1,,,,,0,22,22,0,,,,,13,0,13,0,,,,,left,0.716834996652,MB,f,19,59.994126855,Set,2017_05_17_1412,
1,1,,,,,0,22,22,0,,,,,14,0,14,0,,,,,down,0.516940628848,MB,f,19,59.994126855,Set,2017_05_17_1412,
1,1,,,,,0,22,22,0,,,,,15,0,15,0,,,,,left,0.450231672439,MB,f,19,59.994126855,Set,2017_05_17_1412,
1,1,,,,,0,22,22,0,,,,,16,0,16,0,,,,,down,0.383572058461,MB,f,19,59.994126855,Set,2017_05_17_1412,
1,1,,,,,0,22,22,0,,,,,17,0,17,0,,,,,down,0.166913905006,MB,f,19,59.994126855,Set,2017_05_17_1412,
8,2,,,,,0,23,23,15,,,,,0,0,0,0,,,,,left,1.8167107327,MB,f,19,59.994126855,Set,2017_05_17_1412,
8,2,,,,,0,23,23,15,,,,,1,0,1,0,,,,,down,0.483587532246,MB,f,19,59.994126855,Set,2017_05_17_1412,
8,2,,,,,0,23,23,15,,,,,2,0,2,0,,,,,left,0.483555953077,MB,f,19,59.994126855,Set,2017_05_17_1412,
8,2,,,,,0,23,23,15,,,,,3,0,3,0,,,,,left,0.466896773316,MB,f,19,59.994126855,Set,2017_05_17_1412,
8,2,,,,,0,23,23,15,,,,,4,0,4,0,,,,,left,0.400255712069,MB,f,19,59.994126855,Set,2017_05_17_1412,
8,2,,,,,0,23,23,15,,,,,5,0,5,0,,,,,down,1.16689732598,MB,f,19,59.994126855,Set,2017_05_17_1412,
8,2,,,,,0,23,23,15,,,,,6,0,6,0,,,,,left,1.3502304093,MB,f,19,59.994126855,Set,2017_05_17_1412,
8,2,,,,,0,23,23,15,,,,,7,0,7,0,,,,,down,1.08355997945,MB,f,19,59.994126855,Set,2017_05_17_1412,
8,2,,,,,0,23,23,15,,,,,8,0,8,0,,,,,down,0.416888049571,MB,f,19,59.994126855,Set,2017_05_17_1412,
