number_of_fixational_trials,size,estimating_threshold.thisRepN,estimating_threshold.thisTrialN,estimating_threshold.thisN,estimating_threshold.thisIndex,trials_2.thisRepN,trials_2.thisTrialN,trials_2.thisN,trials_2.thisIndex,trials.thisRepN,trials.thisTrialN,trials.thisN,trials.thisIndex,trials_3.thisRepN,trials_3.thisTrialN,trials_3.thisN,trials_3.thisIndex,rating_up.response,rating_up.rt,rating_down.response,rating_down.rt,answer.keys,answer.rt,participant,gender,age,frameRate,expName,date,
,,0,0,0,0,,,,,,,,,,,,,0.16,16.251,0.36,18.101,,,POL,f,20,59.9980105095,Set,2017_04_15_1917,
,,1,0,1,0,,,,,,,,,,,,,0.33,11.247,0.94,3.397,,,POL,f,20,59.9980105095,Set,2017_04_15_1917,
,,2,0,2,0,,,,,,,,,,,,,0.11,5.78,0.22,24.93,,,POL,f,20,59.9980105095,Set,2017_04_15_1917,
7,2,,,,,0,0,0,14,,,,,0,0,0,0,,,,,left,11.708670835,POL,f,20,59.9980105095,Set,2017_04_15_1917,
7,2,,,,,0,0,0,14,,,,,1,0,1,0,,,,,down,2.75891281012,POL,f,20,59.9980105095,Set,2017_04_15_1917,
7,2,,,,,0,0,0,14,,,,,2,0,2,0,,,,,down,0.508849651786,POL,f,20,59.9980105095,Set,2017_04_15_1917,
1,1,,,,,0,1,1,0,,,,,0,0,0,0,,,,,down,0.5088062305,POL,f,20,59.9980105095,Set,2017_04_15_1917,
1,1,,,,,0,1,1,0,,,,,1,0,1,0,,,,,down,0.325471712975,POL,f,20,59.9980105095,Set,2017_04_15_1917,
3,2,,,,,0,2,2,10,,,,,0,0,0,0,,,,,down,0.483568597585,POL,f,20,59.9980105095,Set,2017_04_15_1917,
3,2,,,,,0,2,2,10,,,,,1,0,1,0,,,,,down,0.408783730352,POL,f,20,59.9980105095,Set,2017_04_15_1917,
3,2,,,,,0,2,2,10,,,,,2,0,2,0,,,,,left,0.725455133943,POL,f,20,59.9980105095,Set,2017_04_15_1917,
3,2,,,,,0,2,2,10,,,,,3,0,3,0,,,,,down,1.25877149357,POL,f,20,59.9980105095,Set,2017_04_15_1917,
3,2,,,,,0,2,2,10,,,,,4,0,4,0,,,,,down,0.558795177843,POL,f,20,59.9980105095,Set,2017_04_15_1917,
6,1,,,,,0,3,3,5,,,,,0,0,0,0,,,,,right,8.22541408124,POL,f,20,59.9980105095,Set,2017_04_15_1917,
6,1,,,,,0,3,3,5,,,,,1,0,1,0,,,,,down,1.49222009047,POL,f,20,59.9980105095,Set,2017_04_15_1917,
6,1,,,,,0,3,3,5,,,,,2,0,2,0,,,,,down,0.44213995873,POL,f,20,59.9980105095,Set,2017_04_15_1917,
5,2,,,,,0,4,4,12,,,,,0,0,0,0,,,,,down,1.09209930059,POL,f,20,59.9980105095,Set,2017_04_15_1917,
5,2,,,,,0,4,4,12,,,,,1,0,1,0,,,,,left,1.09211903764,POL,f,20,59.9980105095,Set,2017_04_15_1917,
5,2,,,,,0,4,4,12,,,,,2,0,2,0,,,,,down,0.492118248018,POL,f,20,59.9980105095,Set,2017_04_15_1917,
5,2,,,,,0,4,4,12,,,,,3,0,3,0,,,,,down,0.442129695322,POL,f,20,59.9980105095,Set,2017_04_15_1917,
7,1,,,,,0,5,5,6,,,,,0,0,0,0,,,,,right,9.52528776461,POL,f,20,59.9980105095,Set,2017_04_15_1917,
7,1,,,,,0,5,5,6,,,,,1,0,1,0,,,,,down,0.842099300586,POL,f,20,59.9980105095,Set,2017_04_15_1917,
7,1,,,,,0,5,5,6,,,,,2,0,2,0,,,,,down,0.658811756875,POL,f,20,59.9980105095,Set,2017_04_15_1917,
7,1,,,,,0,5,5,6,,,,,3,0,3,0,,,,,left,0.525478423573,POL,f,20,59.9980105095,Set,2017_04_15_1917,
7,1,,,,,0,5,5,6,,,,,4,0,4,0,,,,,left,0.558814914897,POL,f,20,59.9980105095,Set,2017_04_15_1917,
7,1,,,,,0,5,5,6,,,,,5,0,5,0,,,,,down,0.625466186553,POL,f,20,59.9980105095,Set,2017_04_15_1917,
7,1,,,,,0,5,5,6,,,,,6,0,6,0,,,,,down,0.592117458582,POL,f,20,59.9980105095,Set,2017_04_15_1917,
2,1,,,,,0,6,6,1,,,,,0,0,0,0,,,,,right,0.70022973814,POL,f,20,59.9980105095,Set,2017_04_15_1917,
2,1,,,,,0,6,6,1,,,,,1,0,1,0,,,,,down,1.20879320404,POL,f,20,59.9980105095,Set,2017_04_15_1917,
2,1,,,,,0,6,6,1,,,,,2,0,2,0,,,,,left,0.99213403766,POL,f,20,59.9980105095,Set,2017_04_15_1917,
2,1,,,,,0,6,6,1,,,,,3,0,3,0,,,,,left,0.525442897109,POL,f,20,59.9980105095,Set,2017_04_15_1917,
2,1,,,,,0,6,6,1,,,,,4,0,4,0,,,,,left,0.575469739269,POL,f,20,59.9980105095,Set,2017_04_15_1917,
2,1,,,,,0,6,6,1,,,,,5,0,5,0,,,,,left,0.908798335819,POL,f,20,59.9980105095,Set,2017_04_15_1917,
2,1,,,,,0,6,6,1,,,,,6,0,6,0,,,,,down,1.62545908149,POL,f,20,59.9980105095,Set,2017_04_15_1917,
2,1,,,,,0,6,6,1,,,,,7,0,7,0,,,,,down,0.892121405806,POL,f,20,59.9980105095,Set,2017_04_15_1917,
3,1,,,,,0,7,7,2,,,,,0,0,0,0,,,,,right,0.392147853505,POL,f,20,59.9980105095,Set,2017_04_15_1917,
3,1,,,,,0,7,7,2,,,,,1,0,1,0,,,,,left,0.892139958683,POL,f,20,59.9980105095,Set,2017_04_15_1917,
3,1,,,,,0,7,7,2,,,,,2,0,2,0,,,,,right,0.592115484877,POL,f,20,59.9980105095,Set,2017_04_15_1917,
3,1,,,,,0,7,7,2,,,,,3,0,3,0,,,,,down,0.60882083606,POL,f,20,59.9980105095,Set,2017_04_15_1917,
3,1,,,,,0,7,7,2,,,,,4,0,4,0,,,,,down,0.408790440997,POL,f,20,59.9980105095,Set,2017_04_15_1917,
5,3,,,,,0,8,8,20,,,,,0,0,0,0,,,,,down,0.708786888281,POL,f,20,59.9980105095,Set,2017_04_15_1917,
5,3,,,,,0,8,8,20,,,,,1,0,1,0,,,,,down,0.625400660094,POL,f,20,59.9980105095,Set,2017_04_15_1917,
2,2,,,,,0,9,9,9,,,,,0,0,0,0,,,,,left,0.942169563845,POL,f,20,59.9980105095,Set,2017_04_15_1917,
2,2,,,,,0,9,9,9,,,,,1,0,1,0,,,,,down,0.775459476048,POL,f,20,59.9980105095,Set,2017_04_15_1917,
2,2,,,,,0,9,9,9,,,,,2,0,2,0,,,,,left,0.625470528845,POL,f,20,59.9980105095,Set,2017_04_15_1917,
2,2,,,,,0,9,9,9,,,,,3,0,3,0,,,,,left,0.375518686837,POL,f,20,59.9980105095,Set,2017_04_15_1917,
2,2,,,,,0,9,9,9,,,,,4,0,4,0,,,,,down,0.475476844469,POL,f,20,59.9980105095,Set,2017_04_15_1917,
2,2,,,,,0,9,9,9,,,,,5,0,5,0,,,,,down,0.79213127424,POL,f,20,59.9980105095,Set,2017_04_15_1917,
2,2,,,,,0,9,9,9,,,,,6,0,6,0,,,,,left,0.458795177983,POL,f,20,59.9980105095,Set,2017_04_15_1917,
2,2,,,,,0,9,9,9,,,,,7,0,7,0,,,,,left,1.05883583589,POL,f,20,59.9980105095,Set,2017_04_15_1917,
2,2,,,,,0,9,9,9,,,,,8,0,8,0,,,,,left,0.358811757062,POL,f,20,59.9980105095,Set,2017_04_15_1917,
2,2,,,,,0,9,9,9,,,,,9,0,9,0,,,,,down,0.625448423438,POL,f,20,59.9980105095,Set,2017_04_15_1917,
2,2,,,,,0,9,9,9,,,,,10,0,10,0,,,,,left,0.592182195745,POL,f,20,59.9980105095,Set,2017_04_15_1917,
2,2,,,,,0,9,9,9,,,,,11,0,11,0,,,,,left,0.958768335637,POL,f,20,59.9980105095,Set,2017_04_15_1917,
2,2,,,,,0,9,9,9,,,,,12,0,12,0,,,,,left,0.642187327147,POL,f,20,59.9980105095,Set,2017_04_15_1917,
2,2,,,,,0,9,9,9,,,,,13,0,13,0,,,,,left,0.475461449707,POL,f,20,59.9980105095,Set,2017_04_15_1917,
2,2,,,,,0,9,9,9,,,,,14,0,14,0,,,,,left,1.19195206277,POL,f,20,59.9980105095,Set,2017_04_15_1917,
2,2,,,,,0,9,9,9,,,,,15,0,15,0,,,,,left,1.59211351117,POL,f,20,59.9980105095,Set,2017_04_15_1917,
2,2,,,,,0,9,9,9,,,,,16,0,16,0,,,,,left,0.692100484623,POL,f,20,59.9980105095,Set,2017_04_15_1917,
2,2,,,,,0,9,9,9,,,,,17,0,17,0,,,,,left,0.525413291762,POL,f,20,59.9980105095,Set,2017_04_15_1917,
2,2,,,,,0,9,9,9,,,,,18,0,18,0,,,,,right,0.692107195267,POL,f,20,59.9980105095,Set,2017_04_15_1917,
2,2,,,,,0,9,9,9,,,,,19,0,19,0,,,,,down,0.45881215157,POL,f,20,59.9980105095,Set,2017_04_15_1917,
2,2,,,,,0,9,9,9,,,,,20,0,20,0,,,,,left,0.425464607542,POL,f,20,59.9980105095,Set,2017_04_15_1917,
2,2,,,,,0,9,9,9,,,,,21,0,21,0,,,,,left,0.358789651655,POL,f,20,59.9980105095,Set,2017_04_15_1917,
2,2,,,,,0,9,9,9,,,,,22,0,22,0,,,,,left,0.208780967165,POL,f,20,59.9980105095,Set,2017_04_15_1917,
2,2,,,,,0,9,9,9,,,,,23,0,23,0,,,,,down,0.558800704312,POL,f,20,59.9980105095,Set,2017_04_15_1917,
2,2,,,,,0,9,9,9,,,,,24,0,24,0,,,,,down,0.292119826889,POL,f,20,59.9980105095,Set,2017_04_15_1917,
2,2,,,,,0,9,9,9,,,,,25,0,25,0,,,,,left,0.892106011044,POL,f,20,59.9980105095,Set,2017_04_15_1917,
2,2,,,,,0,9,9,9,,,,,26,0,26,0,,,,,down,0.475433028769,POL,f,20,59.9980105095,Set,2017_04_15_1917,
2,2,,,,,0,9,9,9,,,,,27,0,27,0,,,,,down,0.516887720441,POL,f,20,59.9980105095,Set,2017_04_15_1917,
2,2,,,,,0,9,9,9,,,,,28,0,28,0,,,,,left,0.408792020055,POL,f,20,59.9980105095,Set,2017_04_15_1917,
2,2,,,,,0,9,9,9,,,,,29,0,29,0,,,,,down,0.38359109778,POL,f,20,59.9980105095,Set,2017_04_15_1917,
2,2,,,,,0,9,9,9,,,,,30,0,30,0,,,,,down,0.558795967372,POL,f,20,59.9980105095,Set,2017_04_15_1917,
7,3,,,,,0,10,10,22,,,,,0,0,0,0,,,,,down,0.850238817045,POL,f,20,59.9980105095,Set,2017_04_15_1917,
7,3,,,,,0,10,10,22,,,,,1,0,1,0,,,,,down,0.558818072779,POL,f,20,59.9980105095,Set,2017_04_15_1917,
7,3,,,,,0,10,10,22,,,,,2,0,2,0,,,,,left,0.542108379537,POL,f,20,59.9980105095,Set,2017_04_15_1917,
7,3,,,,,0,10,10,22,,,,,3,0,3,0,,,,,down,0.375467370963,POL,f,20,59.9980105095,Set,2017_04_15_1917,
7,3,,,,,0,10,10,22,,,,,4,0,4,0,,,,,down,0.375467370963,POL,f,20,59.9980105095,Set,2017_04_15_1917,
7,3,,,,,0,10,10,22,,,,,5,0,5,0,,,,,left,1.42545355507,POL,f,20,59.9980105095,Set,2017_04_15_1917,
7,3,,,,,0,10,10,22,,,,,6,0,6,0,,,,,right,0.475300790975,POL,f,20,59.9980105095,Set,2017_04_15_1917,
7,3,,,,,0,10,10,22,,,,,7,0,7,0,,,,,left,0.442125353497,POL,f,20,59.9980105095,Set,2017_04_15_1917,
7,3,,,,,0,10,10,22,,,,,8,0,8,0,,,,,down,0.442116669146,POL,f,20,59.9980105095,Set,2017_04_15_1917,
7,3,,,,,0,10,10,22,,,,,9,0,9,0,,,,,left,0.492072853027,POL,f,20,59.9980105095,Set,2017_04_15_1917,
7,3,,,,,0,10,10,22,,,,,10,0,10,0,,,,,right,0.342133247992,POL,f,20,59.9980105095,Set,2017_04_15_1917,
7,3,,,,,0,10,10,22,,,,,11,0,11,0,,,,,left,0.408795572584,POL,f,20,59.9980105095,Set,2017_04_15_1917,
7,3,,,,,0,10,10,22,,,,,12,0,12,0,,,,,down,0.475474081468,POL,f,20,59.9980105095,Set,2017_04_15_1917,
7,3,,,,,0,10,10,22,,,,,13,0,13,0,,,,,down,0.425453555072,POL,f,20,59.9980105095,Set,2017_04_15_1917,
5,1,,,,,0,11,11,4,,,,,0,0,0,0,,,,,left,0.67546263407,POL,f,20,59.9980105095,Set,2017_04_15_1917,
5,1,,,,,0,11,11,4,,,,,1,0,1,0,,,,,left,0.542123379651,POL,f,20,59.9980105095,Set,2017_04_15_1917,
5,1,,,,,0,11,11,4,,,,,2,0,2,0,,,,,left,0.392137195682,POL,f,20,59.9980105095,Set,2017_04_15_1917,
5,1,,,,,0,11,11,4,,,,,3,0,3,0,,,,,left,0.458787283162,POL,f,20,59.9980105095,Set,2017_04_15_1917,
5,1,,,,,0,11,11,4,,,,,4,0,4,0,,,,,down,0.44210561621,POL,f,20,59.9980105095,Set,2017_04_15_1917,
5,1,,,,,0,11,11,4,,,,,5,0,5,0,,,,,down,0.558808204252,POL,f,20,59.9980105095,Set,2017_04_15_1917,
8,1,,,,,0,12,12,7,,,,,0,0,0,0,,,,,down,0.542141537648,POL,f,20,59.9980105095,Set,2017_04_15_1917,
8,1,,,,,0,12,12,7,,,,,1,0,1,0,,,,,down,0.70877070399,POL,f,20,59.9980105095,Set,2017_04_15_1917,
8,2,,,,,0,13,13,15,,,,,0,0,0,0,,,,,left,0.875453555025,POL,f,20,59.9980105095,Set,2017_04_15_1917,
8,2,,,,,0,13,13,15,,,,,1,0,1,0,,,,,down,0.842137590051,POL,f,20,59.9980105095,Set,2017_04_15_1917,
8,2,,,,,0,13,13,15,,,,,2,0,2,0,,,,,down,1.29213364283,POL,f,20,59.9980105095,Set,2017_04_15_1917,
2,3,,,,,0,14,14,17,,,,,0,0,0,0,,,,,left,1.15882754652,POL,f,20,59.9980105095,Set,2017_04_15_1917,
2,3,,,,,0,14,14,17,,,,,1,0,1,0,,,,,down,0.525463423459,POL,f,20,59.9980105095,Set,2017_04_15_1917,
2,3,,,,,0,14,14,17,,,,,2,0,2,0,,,,,down,0.592149827164,POL,f,20,59.9980105095,Set,2017_04_15_1917,
2,3,,,,,0,14,14,17,,,,,3,0,3,0,,,,,left,0.49213364278,POL,f,20,59.9980105095,Set,2017_04_15_1917,
2,3,,,,,0,14,14,17,,,,,4,0,4,0,,,,,down,0.375482370844,POL,f,20,59.9980105095,Set,2017_04_15_1917,
2,3,,,,,0,14,14,17,,,,,5,0,5,0,,,,,right,0.658787283115,POL,f,20,59.9980105095,Set,2017_04_15_1917,
2,3,,,,,0,14,14,17,,,,,6,0,6,0,,,,,down,0.525466581341,POL,f,20,59.9980105095,Set,2017_04_15_1917,
2,3,,,,,0,14,14,17,,,,,7,0,7,0,,,,,down,0.292131274473,POL,f,20,59.9980105095,Set,2017_04_15_1917,
1,3,,,,,0,15,15,16,,,,,0,0,0,0,,,,,left,0.375465792138,POL,f,20,59.9980105095,Set,2017_04_15_1917,
1,3,,,,,0,15,15,16,,,,,1,0,1,0,,,,,down,0.508796756854,POL,f,20,59.9980105095,Set,2017_04_15_1917,
1,3,,,,,0,15,15,16,,,,,2,0,2,0,,,,,down,0.342112326762,POL,f,20,59.9980105095,Set,2017_04_15_1917,
1,3,,,,,0,15,15,16,,,,,3,0,3,0,,,,,left,0.392113116337,POL,f,20,59.9980105095,Set,2017_04_15_1917,
1,3,,,,,0,15,15,16,,,,,4,0,4,0,,,,,down,0.425442897016,POL,f,20,59.9980105095,Set,2017_04_15_1917,
1,3,,,,,0,15,15,16,,,,,5,0,5,0,,,,,down,0.392114695394,POL,f,20,59.9980105095,Set,2017_04_15_1917,
4,2,,,,,0,16,16,11,,,,,0,0,0,0,,,,,down,0.442137195496,POL,f,20,59.9980105095,Set,2017_04_15_1917,
4,2,,,,,0,16,16,11,,,,,1,0,1,0,,,,,down,0.525464607636,POL,f,20,59.9980105095,Set,2017_04_15_1917,
4,1,,,,,0,17,17,3,,,,,0,0,0,0,,,,,left,0.98356307135,POL,f,20,59.9980105095,Set,2017_04_15_1917,
4,1,,,,,0,17,17,3,,,,,1,0,1,0,,,,,down,0.492126932368,POL,f,20,59.9980105095,Set,2017_04_15_1917,
4,1,,,,,0,17,17,3,,,,,2,0,2,0,,,,,left,0.492134037428,POL,f,20,59.9980105095,Set,2017_04_15_1917,
4,1,,,,,0,17,17,3,,,,,3,0,3,0,,,,,down,0.458842151798,POL,f,20,59.9980105095,Set,2017_04_15_1917,
4,1,,,,,0,17,17,3,,,,,4,0,4,0,,,,,down,0.35024908022,POL,f,20,59.9980105095,Set,2017_04_15_1917,
6,3,,,,,0,18,18,21,,,,,0,0,0,0,,,,,left,1.07548197615,POL,f,20,59.9980105095,Set,2017_04_15_1917,
6,3,,,,,0,18,18,21,,,,,1,0,1,0,,,,,down,0.325486713089,POL,f,20,59.9980105095,Set,2017_04_15_1917,
6,3,,,,,0,18,18,21,,,,,2,0,2,0,,,,,left,0.842115090229,POL,f,20,59.9980105095,Set,2017_04_15_1917,
6,3,,,,,0,18,18,21,,,,,3,0,3,0,,,,,left,0.592121011112,POL,f,20,59.9980105095,Set,2017_04_15_1917,
6,3,,,,,0,18,18,21,,,,,4,0,4,0,,,,,left,0.591942983912,POL,f,20,59.9980105095,Set,2017_04_15_1917,
6,3,,,,,0,18,18,21,,,,,5,0,5,0,,,,,left,0.358817678178,POL,f,20,59.9980105095,Set,2017_04_15_1917,
6,3,,,,,0,18,18,21,,,,,6,0,6,0,,,,,left,1.45876991469,POL,f,20,59.9980105095,Set,2017_04_15_1917,
6,3,,,,,0,18,18,21,,,,,7,0,7,0,,,,,left,0.708769914461,POL,f,20,59.9980105095,Set,2017_04_15_1917,
6,3,,,,,0,18,18,21,,,,,8,0,8,0,,,,,down,0.608715440612,POL,f,20,59.9980105095,Set,2017_04_15_1917,
6,3,,,,,0,18,18,21,,,,,9,0,9,0,,,,,down,0.42544171284,POL,f,20,59.9980105095,Set,2017_04_15_1917,
1,2,,,,,0,19,19,8,,,,,0,0,0,0,,,,,down,5.72545355489,POL,f,20,59.9980105095,Set,2017_04_15_1917,
1,2,,,,,0,19,19,8,,,,,1,0,1,0,,,,,right,0.642139958683,POL,f,20,59.9980105095,Set,2017_04_15_1917,
1,2,,,,,0,19,19,8,,,,,2,0,2,0,,,,,down,0.708843335975,POL,f,20,59.9980105095,Set,2017_04_15_1917,
1,2,,,,,0,19,19,8,,,,,3,0,3,0,,,,,left,0.875436976086,POL,f,20,59.9980105095,Set,2017_04_15_1917,
1,2,,,,,0,19,19,8,,,,,4,0,4,0,,,,,down,0.558841757011,POL,f,20,59.9980105095,Set,2017_04_15_1917,
1,2,,,,,0,19,19,8,,,,,5,0,5,0,,,,,down,0.475470528705,POL,f,20,59.9980105095,Set,2017_04_15_1917,
3,3,,,,,0,20,20,18,,,,,0,0,0,0,,,,,down,0.525466581341,POL,f,20,59.9980105095,Set,2017_04_15_1917,
3,3,,,,,0,20,20,18,,,,,1,0,1,0,,,,,left,0.408804256702,POL,f,20,59.9980105095,Set,2017_04_15_1917,
3,3,,,,,0,20,20,18,,,,,2,0,2,0,,,,,down,0.392129695509,POL,f,20,59.9980105095,Set,2017_04_15_1917,
3,3,,,,,0,20,20,18,,,,,3,0,3,0,,,,,down,0.342128116405,POL,f,20,59.9980105095,Set,2017_04_15_1917,
6,2,,,,,0,21,21,13,,,,,0,0,0,0,,,,,left,0.575465002563,POL,f,20,59.9980105095,Set,2017_04_15_1917,
6,2,,,,,0,21,21,13,,,,,1,0,1,0,,,,,down,0.575460660504,POL,f,20,59.9980105095,Set,2017_04_15_1917,
6,2,,,,,0,21,21,13,,,,,2,0,2,0,,,,,down,0.392141537741,POL,f,20,59.9980105095,Set,2017_04_15_1917,
4,3,,,,,0,22,22,19,,,,,0,0,0,0,,,,,down,1.28355636098,POL,f,20,59.9980105095,Set,2017_04_15_1917,
4,3,,,,,0,22,22,19,,,,,1,0,1,0,,,,,left,0.566862851847,POL,f,20,59.9980105095,Set,2017_04_15_1917,
4,3,,,,,0,22,22,19,,,,,2,0,2,0,,,,,down,0.692117853323,POL,f,20,59.9980105095,Set,2017_04_15_1917,
4,3,,,,,0,22,22,19,,,,,3,0,3,0,,,,,left,0.708788861986,POL,f,20,59.9980105095,Set,2017_04_15_1917,
4,3,,,,,0,22,22,19,,,,,4,0,4,0,,,,,down,0.525499344803,POL,f,20,59.9980105095,Set,2017_04_15_1917,
4,3,,,,,0,22,22,19,,,,,5,0,5,0,,,,,left,0.442132063909,POL,f,20,59.9980105095,Set,2017_04_15_1917,
4,3,,,,,0,22,22,19,,,,,6,0,6,0,,,,,left,0.358816493768,POL,f,20,59.9980105095,Set,2017_04_15_1917,
4,3,,,,,0,22,22,19,,,,,7,0,7,0,,,,,left,0.392134037567,POL,f,20,59.9980105095,Set,2017_04_15_1917,
4,3,,,,,0,22,22,19,,,,,8,0,8,0,,,,,left,0.342136011226,POL,f,20,59.9980105095,Set,2017_04_15_1917,
4,3,,,,,0,22,22,19,,,,,9,0,9,0,,,,,left,0.37543934444,POL,f,20,59.9980105095,Set,2017_04_15_1917,
4,3,,,,,0,22,22,19,,,,,10,0,10,0,,,,,down,0.342131274287,POL,f,20,59.9980105095,Set,2017_04_15_1917,
4,3,,,,,0,22,22,19,,,,,11,0,11,0,,,,,down,0.325439739274,POL,f,20,59.9980105095,Set,2017_04_15_1917,
4,3,,,,,0,22,22,19,,,,,12,0,12,0,,,,,left,0.442121800734,POL,f,20,59.9980105095,Set,2017_04_15_1917,
4,3,,,,,0,22,22,19,,,,,13,0,13,0,,,,,down,0.525454344461,POL,f,20,59.9980105095,Set,2017_04_15_1917,
4,3,,,,,0,22,22,19,,,,,14,0,14,0,,,,,down,0.375480397139,POL,f,20,59.9980105095,Set,2017_04_15_1917,
4,3,,,,,0,22,22,19,,,,,15,0,15,0,,,,,left,0.44211430056,POL,f,20,59.9980105095,Set,2017_04_15_1917,
4,3,,,,,0,22,22,19,,,,,16,0,16,0,,,,,down,1.52547842357,POL,f,20,59.9980105095,Set,2017_04_15_1917,
4,3,,,,,0,22,22,19,,,,,17,0,17,0,,,,,left,0.375465791905,POL,f,20,59.9980105095,Set,2017_04_15_1917,
4,3,,,,,0,22,22,19,,,,,18,0,18,0,,,,,left,0.408786888467,POL,f,20,59.9980105095,Set,2017_04_15_1917,
4,3,,,,,0,22,22,19,,,,,19,0,19,0,,,,,left,0.292120616417,POL,f,20,59.9980105095,Set,2017_04_15_1917,
4,3,,,,,0,22,22,19,,,,,20,0,20,0,,,,,left,0.425461055012,POL,f,20,59.9980105095,Set,2017_04_15_1917,
4,3,,,,,0,22,22,19,,,,,21,0,21,0,,,,,down,0.475305527914,POL,f,20,59.9980105095,Set,2017_04_15_1917,
4,3,,,,,0,22,22,19,,,,,22,0,22,0,,,,,down,0.275463028811,POL,f,20,59.9980105095,Set,2017_04_15_1917,
8,3,,,,,0,23,23,23,,,,,0,0,0,0,,,,,left,0.433410307392,POL,f,20,59.9980105095,Set,2017_04_15_1917,
8,3,,,,,0,23,23,23,,,,,1,0,1,0,,,,,down,0.458793993806,POL,f,20,59.9980105095,Set,2017_04_15_1917,
8,3,,,,,0,23,23,23,,,,,2,0,2,0,,,,,down,0.442121800734,POL,f,20,59.9980105095,Set,2017_04_15_1917,
