number_of_fixational_trials,size,estimating_threshold.thisRepN,estimating_threshold.thisTrialN,estimating_threshold.thisN,estimating_threshold.thisIndex,trials_2.thisRepN,trials_2.thisTrialN,trials_2.thisN,trials_2.thisIndex,trials.thisRepN,trials.thisTrialN,trials.thisN,trials.thisIndex,trials_3.thisRepN,trials_3.thisTrialN,trials_3.thisN,trials_3.thisIndex,rating_up.response,rating_up.rt,rating_down.response,rating_down.rt,answer.keys,answer.rt,participant,gender,age,frameRate,expName,date,
,,0,0,0,0,,,,,,,,,,,,,0.09,43.367,0.4,19.935,,,RBD,f,18,60.0056374049,Set,2017_05_16_1316,
,,1,0,1,0,,,,,,,,,,,,,0.14,16.397,0.46,17.78,,,RBD,f,18,60.0056374049,Set,2017_05_16_1316,
,,2,0,2,0,,,,,,,,,,,,,0.26,19.314,0.36,19.383,,,RBD,f,18,60.0056374049,Set,2017_05_16_1316,
7,1,,,,,0,0,0,6,,,,,0,0,0,0,,,,,down,4.66689495751,RBD,f,18,60.0056374049,Set,2017_05_16_1316,
7,1,,,,,0,0,0,6,,,,,1,0,1,0,,,,,down,6.1502010407,RBD,f,18,60.0056374049,Set,2017_05_16_1316,
5,3,,,,,0,1,1,20,,,,,0,0,0,0,,,,,down,1.31688994434,RBD,f,18,60.0056374049,Set,2017_05_16_1316,
5,3,,,,,0,1,1,20,,,,,1,0,1,0,,,,,down,0.816858759936,RBD,f,18,60.0056374049,Set,2017_05_16_1316,
2,3,,,,,0,2,2,17,,,,,0,0,0,0,,,,,down,1.25024059357,RBD,f,18,60.0056374049,Set,2017_05_16_1316,
2,3,,,,,0,2,2,17,,,,,1,0,1,0,,,,,down,0.866916036612,RBD,f,18,60.0056374049,Set,2017_05_16_1316,
3,2,,,,,0,3,3,10,,,,,0,0,0,0,,,,,left,2.75004677661,RBD,f,18,60.0056374049,Set,2017_05_16_1316,
3,2,,,,,0,3,3,10,,,,,1,0,1,0,,,,,down,1.58357655851,RBD,f,18,60.0056374049,Set,2017_05_16_1316,
3,2,,,,,0,3,3,10,,,,,2,0,2,0,,,,,left,1.31688283902,RBD,f,18,60.0056374049,Set,2017_05_16_1316,
3,2,,,,,0,3,3,10,,,,,3,0,3,0,,,,,left,0.966964273743,RBD,f,18,60.0056374049,Set,2017_05_16_1316,
3,2,,,,,0,3,3,10,,,,,4,0,4,0,,,,,down,0.716896181199,RBD,f,18,60.0056374049,Set,2017_05_16_1316,
3,2,,,,,0,3,3,10,,,,,5,0,5,0,,,,,down,0.700266606873,RBD,f,18,60.0056374049,Set,2017_05_16_1316,
7,3,,,,,0,4,4,22,,,,,0,0,0,0,,,,,down,0.766900168092,RBD,f,18,60.0056374049,Set,2017_05_16_1316,
7,3,,,,,0,4,4,22,,,,,1,0,1,0,,,,,down,0.650231830339,RBD,f,18,60.0056374049,Set,2017_05_16_1316,
8,1,,,,,0,5,5,7,,,,,0,0,0,0,,,,,down,0.683594005968,RBD,f,18,60.0056374049,Set,2017_05_16_1316,
8,1,,,,,0,5,5,7,,,,,1,0,1,0,,,,,down,0.650237751426,RBD,f,18,60.0056374049,Set,2017_05_16_1316,
4,2,,,,,0,6,6,11,,,,,0,0,0,0,,,,,down,0.733586940129,RBD,f,18,60.0056374049,Set,2017_05_16_1316,
4,2,,,,,0,6,6,11,,,,,1,0,1,0,,,,,left,1.38355153202,RBD,f,18,60.0056374049,Set,2017_05_16_1316,
4,2,,,,,0,6,6,11,,,,,2,0,2,0,,,,,down,1.16697745802,RBD,f,18,60.0056374049,Set,2017_05_16_1316,
4,2,,,,,0,6,6,11,,,,,3,0,3,0,,,,,down,0.550215961819,RBD,f,18,60.0056374049,Set,2017_05_16_1316,
8,3,,,,,0,7,7,23,,,,,0,0,0,0,,,,,left,1.16691390501,RBD,f,18,60.0056374049,Set,2017_05_16_1316,
8,3,,,,,0,7,7,23,,,,,1,0,1,0,,,,,left,0.600080211007,RBD,f,18,60.0056374049,Set,2017_05_16_1316,
8,3,,,,,0,7,7,23,,,,,2,0,2,0,,,,,left,0.500243554096,RBD,f,18,60.0056374049,Set,2017_05_16_1316,
8,3,,,,,0,7,7,23,,,,,3,0,3,0,,,,,left,1.65024564622,RBD,f,18,60.0056374049,Set,2017_05_16_1316,
8,3,,,,,0,7,7,23,,,,,4,0,4,0,,,,,down,0.68356874265,RBD,f,18,60.0056374049,Set,2017_05_16_1316,
8,3,,,,,0,7,7,23,,,,,5,0,5,0,,,,,left,0.600261396321,RBD,f,18,60.0056374049,Set,2017_05_16_1316,
8,3,,,,,0,7,7,23,,,,,6,0,6,0,,,,,left,0.516862470482,RBD,f,18,60.0056374049,Set,2017_05_16_1316,
8,3,,,,,0,7,7,23,,,,,7,0,7,0,,,,,left,0.466908220755,RBD,f,18,60.0056374049,Set,2017_05_16_1316,
8,3,,,,,0,7,7,23,,,,,8,0,8,0,,,,,left,0.500244343566,RBD,f,18,60.0056374049,Set,2017_05_16_1316,
8,3,,,,,0,7,7,23,,,,,9,0,9,0,,,,,left,0.616900049645,RBD,f,18,60.0056374049,Set,2017_05_16_1316,
8,3,,,,,0,7,7,23,,,,,10,0,10,0,,,,,left,0.550226619787,RBD,f,18,60.0056374049,Set,2017_05_16_1316,
8,3,,,,,0,7,7,23,,,,,11,0,11,0,,,,,left,0.416904628626,RBD,f,18,60.0056374049,Set,2017_05_16_1316,
8,3,,,,,0,7,7,23,,,,,12,0,12,0,,,,,left,0.433594598086,RBD,f,18,60.0056374049,Set,2017_05_16_1316,
8,3,,,,,0,7,7,23,,,,,13,0,13,0,,,,,left,0.766878852155,RBD,f,18,60.0056374049,Set,2017_05_16_1316,
8,3,,,,,0,7,7,23,,,,,14,0,14,0,,,,,left,0.483583190129,RBD,f,18,60.0056374049,Set,2017_05_16_1316,
8,3,,,,,0,7,7,23,,,,,15,0,15,0,,,,,left,0.516950892081,RBD,f,18,60.0056374049,Set,2017_05_16_1316,
8,3,,,,,0,7,7,23,,,,,16,0,16,0,,,,,left,0.583632611466,RBD,f,18,60.0056374049,Set,2017_05_16_1316,
8,3,,,,,0,7,7,23,,,,,17,0,17,0,,,,,left,0.36692590508,RBD,f,18,60.0056374049,Set,2017_05_16_1316,
8,3,,,,,0,7,7,23,,,,,18,0,18,0,,,,,left,3.1002661332,RBD,f,18,60.0056374049,Set,2017_05_16_1316,
8,3,,,,,0,7,7,23,,,,,19,0,19,0,,,,,down,0.666914694506,RBD,f,18,60.0056374049,Set,2017_05_16_1316,
8,3,,,,,0,7,7,23,,,,,20,0,20,0,,,,,left,0.850280146406,RBD,f,18,60.0056374049,Set,2017_05_16_1316,
8,3,,,,,0,7,7,23,,,,,21,0,21,0,,,,,left,0.583593532268,RBD,f,18,60.0056374049,Set,2017_05_16_1316,
8,3,,,,,0,7,7,23,,,,,22,0,22,0,,,,,left,0.683570716326,RBD,f,18,60.0056374049,Set,2017_05_16_1316,
8,3,,,,,0,7,7,23,,,,,23,0,23,0,,,,,left,0.433558676799,RBD,f,18,60.0056374049,Set,2017_05_16_1316,
8,3,,,,,0,7,7,23,,,,,24,0,24,0,,,,,down,0.683569137414,RBD,f,18,60.0056374049,Set,2017_05_16_1316,
8,3,,,,,0,7,7,23,,,,,25,0,25,0,,,,,left,0.383591400663,RBD,f,18,60.0056374049,Set,2017_05_16_1316,
8,3,,,,,0,7,7,23,,,,,26,0,26,0,,,,,left,0.333504123846,RBD,f,18,60.0056374049,Set,2017_05_16_1316,
8,3,,,,,0,7,7,23,,,,,27,0,27,0,,,,,left,0.350245804118,RBD,f,18,60.0056374049,Set,2017_05_16_1316,
8,3,,,,,0,7,7,23,,,,,28,0,28,0,,,,,left,0.350229619798,RBD,f,18,60.0056374049,Set,2017_05_16_1316,
8,3,,,,,0,7,7,23,,,,,29,0,29,0,,,,,down,0.416913707624,RBD,f,18,60.0056374049,Set,2017_05_16_1316,
8,3,,,,,0,7,7,23,,,,,30,0,30,0,,,,,left,0.283592900698,RBD,f,18,60.0056374049,Set,2017_05_16_1316,
8,3,,,,,0,7,7,23,,,,,31,0,31,0,,,,,down,0.466886904847,RBD,f,18,60.0056374049,Set,2017_05_16_1316,
8,3,,,,,0,7,7,23,,,,,32,0,32,0,,,,,left,0.383573242667,RBD,f,18,60.0056374049,Set,2017_05_16_1316,
8,3,,,,,0,7,7,23,,,,,33,0,33,0,,,,,down,0.466903878638,RBD,f,18,60.0056374049,Set,2017_05_16_1316,
8,3,,,,,0,7,7,23,,,,,34,0,34,0,,,,,left,0.333555834688,RBD,f,18,60.0056374049,Set,2017_05_16_1316,
8,3,,,,,0,7,7,23,,,,,35,0,35,0,,,,,down,0.533580071671,RBD,f,18,60.0056374049,Set,2017_05_16_1316,
8,3,,,,,0,7,7,23,,,,,36,0,36,0,,,,,left,0.433565387386,RBD,f,18,60.0056374049,Set,2017_05_16_1316,
8,3,,,,,0,7,7,23,,,,,37,0,37,0,,,,,down,0.483571347926,RBD,f,18,60.0056374049,Set,2017_05_16_1316,
8,3,,,,,0,7,7,23,,,,,38,0,38,0,,,,,left,0.550241619872,RBD,f,18,60.0056374049,Set,2017_05_16_1316,
8,3,,,,,0,7,7,23,,,,,39,0,39,0,,,,,left,0.433556703094,RBD,f,18,60.0056374049,Set,2017_05_16_1316,
8,3,,,,,0,7,7,23,,,,,40,0,40,0,,,,,left,0.450224567147,RBD,f,18,60.0056374049,Set,2017_05_16_1316,
8,3,,,,,0,7,7,23,,,,,41,0,41,0,,,,,left,0.450243119907,RBD,f,18,60.0056374049,Set,2017_05_16_1316,
8,3,,,,,0,7,7,23,,,,,42,0,42,0,,,,,left,0.466915326047,RBD,f,18,60.0056374049,Set,2017_05_16_1316,
8,3,,,,,0,7,7,23,,,,,43,0,43,0,,,,,left,0.450243909349,RBD,f,18,60.0056374049,Set,2017_05_16_1316,
8,3,,,,,0,7,7,23,,,,,44,0,44,0,,,,,left,0.416898707539,RBD,f,18,60.0056374049,Set,2017_05_16_1316,
8,3,,,,,0,7,7,23,,,,,45,0,45,0,,,,,left,0.383571268962,RBD,f,18,60.0056374049,Set,2017_05_16_1316,
8,3,,,,,0,7,7,23,,,,,46,0,46,0,,,,,left,0.400234396162,RBD,f,18,60.0056374049,Set,2017_05_16_1316,
8,3,,,,,0,7,7,23,,,,,47,0,47,0,,,,,left,0.833567282127,RBD,f,18,60.0056374049,Set,2017_05_16_1316,
8,3,,,,,0,7,7,23,,,,,48,0,48,0,,,,,left,0.400239527749,RBD,f,18,60.0056374049,Set,2017_05_16_1316,
8,3,,,,,0,7,7,23,,,,,49,0,49,0,,,,,left,0.300242606754,RBD,f,18,60.0056374049,Set,2017_05_16_1316,
8,3,,,,,0,7,7,23,,,,,50,0,50,0,,,,,left,0.38358429537,RBD,f,18,60.0056374049,Set,2017_05_16_1316,
8,3,,,,,0,7,7,23,,,,,51,0,51,0,,,,,left,0.466934273572,RBD,f,18,60.0056374049,Set,2017_05_16_1316,
8,3,,,,,0,7,7,23,,,,,52,0,52,0,,,,,left,0.400241106719,RBD,f,18,60.0056374049,Set,2017_05_16_1316,
8,3,,,,,0,7,7,23,,,,,53,0,53,0,,,,,left,0.316750601371,RBD,f,18,60.0056374049,Set,2017_05_16_1316,
8,3,,,,,0,7,7,23,,,,,54,0,54,0,,,,,left,0.383557453111,RBD,f,18,60.0056374049,Set,2017_05_16_1316,
8,3,,,,,0,7,7,23,,,,,55,0,55,0,,,,,left,0.383559426788,RBD,f,18,60.0056374049,Set,2017_05_16_1316,
8,3,,,,,0,7,7,23,,,,,56,0,56,0,,,,,left,0.416905812861,RBD,f,18,60.0056374049,Set,2017_05_16_1316,
8,3,,,,,0,7,7,23,,,,,57,0,57,0,,,,,left,0.433602887613,RBD,f,18,60.0056374049,Set,2017_05_16_1316,
8,3,,,,,0,7,7,23,,,,,58,0,58,0,,,,,left,0.266887931153,RBD,f,18,60.0056374049,Set,2017_05_16_1316,
8,3,,,,,0,7,7,23,,,,,59,0,59,0,,,,,left,0.35023672512,RBD,f,18,60.0056374049,Set,2017_05_16_1316,
8,3,,,,,0,7,7,23,,,,,60,0,60,0,,,,,left,0.350250146235,RBD,f,18,60.0056374049,Set,2017_05_16_1316,
8,3,,,,,0,7,7,23,,,,,61,0,61,0,,,,,left,0.383580742724,RBD,f,18,60.0056374049,Set,2017_05_16_1316,
8,3,,,,,0,7,7,23,,,,,62,0,62,0,,,,,down,1.86690932603,RBD,f,18,60.0056374049,Set,2017_05_16_1316,
8,3,,,,,0,7,7,23,,,,,63,0,63,0,,,,,left,1.03357415056,RBD,f,18,60.0056374049,Set,2017_05_16_1316,
8,3,,,,,0,7,7,23,,,,,64,0,64,0,,,,,down,0.817122051027,RBD,f,18,60.0056374049,Set,2017_05_16_1316,
8,3,,,,,0,7,7,23,,,,,65,0,65,0,,,,,down,0.500237238273,RBD,f,18,60.0056374049,Set,2017_05_16_1316,
3,1,,,,,0,8,8,2,,,,,0,0,0,0,,,,,left,1.6002744227,RBD,f,18,60.0056374049,Set,2017_05_16_1316,
3,1,,,,,0,8,8,2,,,,,1,0,1,0,,,,,down,0.416919234005,RBD,f,18,60.0056374049,Set,2017_05_16_1316,
3,1,,,,,0,8,8,2,,,,,2,0,2,0,,,,,down,0.466903878609,RBD,f,18,60.0056374049,Set,2017_05_16_1316,
3,1,,,,,0,8,8,2,,,,,3,0,3,0,,,,,left,0.833577150595,RBD,f,18,60.0056374049,Set,2017_05_16_1316,
3,1,,,,,0,8,8,2,,,,,4,0,4,0,,,,,left,0.700268580578,RBD,f,18,60.0056374049,Set,2017_05_16_1316,
3,1,,,,,0,8,8,2,,,,,5,0,5,0,,,,,left,0.566887378547,RBD,f,18,60.0056374049,Set,2017_05_16_1316,
3,1,,,,,0,8,8,2,,,,,6,0,6,0,,,,,left,1.03356072944,RBD,f,18,60.0056374049,Set,2017_05_16_1316,
3,1,,,,,0,8,8,2,,,,,7,0,7,0,,,,,left,0.400240711984,RBD,f,18,60.0056374049,Set,2017_05_16_1316,
3,1,,,,,0,8,8,2,,,,,8,0,8,0,,,,,down,0.450261277874,RBD,f,18,60.0056374049,Set,2017_05_16_1316,
3,1,,,,,0,8,8,2,,,,,9,0,9,0,,,,,down,0.366732482857,RBD,f,18,60.0056374049,Set,2017_05_16_1316,
8,2,,,,,0,9,9,15,,,,,0,0,0,0,,,,,left,0.633586466458,RBD,f,18,60.0056374049,Set,2017_05_16_1316,
8,2,,,,,0,9,9,15,,,,,1,0,1,0,,,,,down,0.583573795331,RBD,f,18,60.0056374049,Set,2017_05_16_1316,
8,2,,,,,0,9,9,15,,,,,2,0,2,0,,,,,down,0.383565347875,RBD,f,18,60.0056374049,Set,2017_05_16_1316,
5,2,,,,,0,10,10,12,,,,,0,0,0,0,,,,,down,0.600238106708,RBD,f,18,60.0056374049,Set,2017_05_16_1316,
5,2,,,,,0,10,10,12,,,,,1,0,1,0,,,,,down,0.750237435626,RBD,f,18,60.0056374049,Set,2017_05_16_1316,
1,2,,,,,0,11,11,8,,,,,0,0,0,0,,,,,down,0.61690518129,RBD,f,18,60.0056374049,Set,2017_05_16_1316,
1,2,,,,,0,11,11,8,,,,,1,0,1,0,,,,,left,0.666916273418,RBD,f,18,60.0056374049,Set,2017_05_16_1316,
1,2,,,,,0,11,11,8,,,,,2,0,2,0,,,,,down,0.866906957584,RBD,f,18,60.0056374049,Set,2017_05_16_1316,
1,2,,,,,0,11,11,8,,,,,3,0,3,0,,,,,left,0.583559979452,RBD,f,18,60.0056374049,Set,2017_05_16_1316,
1,2,,,,,0,11,11,8,,,,,4,0,4,0,,,,,left,0.550090040022,RBD,f,18,60.0056374049,Set,2017_05_16_1316,
1,2,,,,,0,11,11,8,,,,,5,0,5,0,,,,,down,0.533571387408,RBD,f,18,60.0056374049,Set,2017_05_16_1316,
1,2,,,,,0,11,11,8,,,,,6,0,6,0,,,,,down,0.300235896168,RBD,f,18,60.0056374049,Set,2017_05_16_1316,
1,2,,,,,0,11,11,8,,,,,7,0,7,0,,,,,left,0.350224093476,RBD,f,18,60.0056374049,Set,2017_05_16_1316,
1,2,,,,,0,11,11,8,,,,,8,0,8,0,,,,,down,0.333592940151,RBD,f,18,60.0056374049,Set,2017_05_16_1316,
1,2,,,,,0,11,11,8,,,,,9,0,9,0,,,,,left,0.800257212075,RBD,f,18,60.0056374049,Set,2017_05_16_1316,
1,2,,,,,0,11,11,8,,,,,10,0,10,0,,,,,left,1.00023329089,RBD,f,18,60.0056374049,Set,2017_05_16_1316,
1,2,,,,,0,11,11,8,,,,,11,0,11,0,,,,,down,0.566974221147,RBD,f,18,60.0056374049,Set,2017_05_16_1316,
1,2,,,,,0,11,11,8,,,,,12,0,12,0,,,,,right,0.750238225126,RBD,f,18,60.0056374049,Set,2017_05_16_1316,
1,2,,,,,0,11,11,8,,,,,13,0,13,0,,,,,down,0.533568624232,RBD,f,18,60.0056374049,Set,2017_05_16_1316,
1,2,,,,,0,11,11,8,,,,,14,0,14,0,,,,,left,0.51687076001,RBD,f,18,60.0056374049,Set,2017_05_16_1316,
1,2,,,,,0,11,11,8,,,,,15,0,15,0,,,,,left,0.650225909252,RBD,f,18,60.0056374049,Set,2017_05_16_1316,
1,2,,,,,0,11,11,8,,,,,16,0,16,0,,,,,down,0.400250185718,RBD,f,18,60.0056374049,Set,2017_05_16_1316,
1,2,,,,,0,11,11,8,,,,,17,0,17,0,,,,,down,0.7502208566,RBD,f,18,60.0056374049,Set,2017_05_16_1316,
1,3,,,,,0,12,12,16,,,,,0,0,0,0,,,,,down,0.700240159349,RBD,f,18,60.0056374049,Set,2017_05_16_1316,
1,3,,,,,0,12,12,16,,,,,1,0,1,0,,,,,down,0.500333554664,RBD,f,18,60.0056374049,Set,2017_05_16_1316,
1,1,,,,,0,13,13,0,,,,,0,0,0,0,,,,,down,0.750233093509,RBD,f,18,60.0056374049,Set,2017_05_16_1316,
1,1,,,,,0,13,13,0,,,,,1,0,1,0,,,,,down,0.350207514421,RBD,f,18,60.0056374049,Set,2017_05_16_1316,
4,1,,,,,0,14,14,3,,,,,0,0,0,0,,,,,down,0.450256146287,RBD,f,18,60.0056374049,Set,2017_05_16_1316,
4,1,,,,,0,14,14,3,,,,,1,0,1,0,,,,,down,0.466919668193,RBD,f,18,60.0056374049,Set,2017_05_16_1316,
6,3,,,,,0,15,15,21,,,,,0,0,0,0,,,,,down,1.70023186982,RBD,f,18,60.0056374049,Set,2017_05_16_1316,
6,3,,,,,0,15,15,21,,,,,1,0,1,0,,,,,down,0.450227725058,RBD,f,18,60.0056374049,Set,2017_05_16_1316,
6,3,,,,,0,15,15,21,,,,,2,0,2,0,,,,,left,0.550256225222,RBD,f,18,60.0056374049,Set,2017_05_16_1316,
6,3,,,,,0,15,15,21,,,,,3,0,3,0,,,,,left,0.450268383196,RBD,f,18,60.0056374049,Set,2017_05_16_1316,
6,3,,,,,0,15,15,21,,,,,4,0,4,0,,,,,left,0.433573282149,RBD,f,18,60.0056374049,Set,2017_05_16_1316,
6,3,,,,,0,15,15,21,,,,,5,0,5,0,,,,,left,0.800213790761,RBD,f,18,60.0056374049,Set,2017_05_16_1316,
6,3,,,,,0,15,15,21,,,,,6,0,6,0,,,,,down,0.6835549268,RBD,f,18,60.0056374049,Set,2017_05_16_1316,
6,3,,,,,0,15,15,21,,,,,7,0,7,0,,,,,down,0.416912128683,RBD,f,18,60.0056374049,Set,2017_05_16_1316,
6,1,,,,,0,16,16,5,,,,,0,0,0,0,,,,,down,0.566930010362,RBD,f,18,60.0056374049,Set,2017_05_16_1316,
6,1,,,,,0,16,16,5,,,,,1,0,1,0,,,,,down,0.41690423392,RBD,f,18,60.0056374049,Set,2017_05_16_1316,
6,1,,,,,0,16,16,5,,,,,2,0,2,0,,,,,left,0.566909483925,RBD,f,18,60.0056374049,Set,2017_05_16_1316,
6,1,,,,,0,16,16,5,,,,,3,0,3,0,,,,,down,0.53360612446,RBD,f,18,60.0056374049,Set,2017_05_16_1316,
6,1,,,,,0,16,16,5,,,,,4,0,4,0,,,,,left,0.500221448718,RBD,f,18,60.0056374049,Set,2017_05_16_1316,
6,1,,,,,0,16,16,5,,,,,5,0,5,0,,,,,down,0.416890023276,RBD,f,18,60.0056374049,Set,2017_05_16_1316,
6,1,,,,,0,16,16,5,,,,,6,0,6,0,,,,,left,1.03356704526,RBD,f,18,60.0056374049,Set,2017_05_16_1316,
6,1,,,,,0,16,16,5,,,,,7,0,7,0,,,,,down,0.61694741837,RBD,f,18,60.0056374049,Set,2017_05_16_1316,
6,1,,,,,0,16,16,5,,,,,8,0,8,0,,,,,down,0.583567084745,RBD,f,18,60.0056374049,Set,2017_05_16_1316,
6,2,,,,,0,17,17,13,,,,,0,0,0,0,,,,,left,0.566915405012,RBD,f,18,60.0056374049,Set,2017_05_16_1316,
6,2,,,,,0,17,17,13,,,,,1,0,1,0,,,,,down,0.450229698763,RBD,f,18,60.0056374049,Set,2017_05_16_1316,
6,2,,,,,0,17,17,13,,,,,2,0,2,0,,,,,down,0.766921483999,RBD,f,18,60.0056374049,Set,2017_05_16_1316,
7,2,,,,,0,18,18,14,,,,,0,0,0,0,,,,,left,0.450250619964,RBD,f,18,60.0056374049,Set,2017_05_16_1316,
7,2,,,,,0,18,18,14,,,,,1,0,1,0,,,,,down,0.383597716514,RBD,f,18,60.0056374049,Set,2017_05_16_1316,
7,2,,,,,0,18,18,14,,,,,2,0,2,0,,,,,down,0.450228909292,RBD,f,18,60.0056374049,Set,2017_05_16_1316,
2,2,,,,,0,19,19,9,,,,,0,0,0,0,,,,,down,0.300257212104,RBD,f,18,60.0056374049,Set,2017_05_16_1316,
2,2,,,,,0,19,19,9,,,,,1,0,1,0,,,,,down,0.466918089223,RBD,f,18,60.0056374049,Set,2017_05_16_1316,
2,2,,,,,0,19,19,9,,,,,2,0,2,0,,,,,left,0.650231830339,RBD,f,18,60.0056374049,Set,2017_05_16_1316,
2,2,,,,,0,19,19,9,,,,,3,0,3,0,,,,,down,0.450250619935,RBD,f,18,60.0056374049,Set,2017_05_16_1316,
2,2,,,,,0,19,19,9,,,,,4,0,4,0,,,,,down,0.46689322067,RBD,f,18,60.0056374049,Set,2017_05_16_1316,
4,3,,,,,0,20,20,19,,,,,0,0,0,0,,,,,down,1.13356436105,RBD,f,18,60.0056374049,Set,2017_05_16_1316,
4,3,,,,,0,20,20,19,,,,,1,0,1,0,,,,,down,0.716915918165,RBD,f,18,60.0056374049,Set,2017_05_16_1316,
3,3,,,,,0,21,21,18,,,,,0,0,0,0,,,,,down,0.516890891711,RBD,f,18,60.0056374049,Set,2017_05_16_1316,
3,3,,,,,0,21,21,18,,,,,1,0,1,0,,,,,down,0.600292580726,RBD,f,18,60.0056374049,Set,2017_05_16_1316,
2,1,,,,,0,22,22,1,,,,,0,0,0,0,,,,,down,0.450239961996,RBD,f,18,60.0056374049,Set,2017_05_16_1316,
2,1,,,,,0,22,22,1,,,,,1,0,1,0,,,,,down,0.400190185377,RBD,f,18,60.0056374049,Set,2017_05_16_1316,
5,1,,,,,0,23,23,4,,,,,0,0,0,0,,,,,down,1.96689164173,RBD,f,18,60.0056374049,Set,2017_05_16_1316,
5,1,,,,,0,23,23,4,,,,,1,0,1,0,,,,,down,0.416899497039,RBD,f,18,60.0056374049,Set,2017_05_16_1316,
