number_of_fixational_trials,size,estimating_threshold.thisRepN,estimating_threshold.thisTrialN,estimating_threshold.thisN,estimating_threshold.thisIndex,trials_2.thisRepN,trials_2.thisTrialN,trials_2.thisN,trials_2.thisIndex,trials.thisRepN,trials.thisTrialN,trials.thisN,trials.thisIndex,trials_3.thisRepN,trials_3.thisTrialN,trials_3.thisN,trials_3.thisIndex,rating_up.response,rating_up.rt,rating_down.response,rating_down.rt,answer.keys,answer.rt,participant,gender,age,frameRate,expName,date,
,,0,0,0,0,,,,,,,,,,,,,0.45,16.701,0.32,17.768,,,Simon,M,21,60.0049741219,Set,2017_04_15_1935,
,,1,0,1,0,,,,,,,,,,,,,0.42,12.264,0.23,24.063,,,Simon,M,21,60.0049741219,Set,2017_04_15_1935,
,,2,0,2,0,,,,,,,,,,,,,0.4,11.83,0.31,15.547,,,Simon,M,21,60.0049741219,Set,2017_04_15_1935,
4,1,,,,,0,0,0,3,,,,,0,0,0,0,,,,,down,4.04207561607,Simon,M,21,60.0049741219,Set,2017_04_15_1935,
4,1,,,,,0,0,0,3,,,,,1,0,1,0,,,,,down,1.29214035347,Simon,M,21,60.0049741219,Set,2017_04_15_1935,
8,3,,,,,0,1,1,23,,,,,0,0,0,0,,,,,left,17.6500592108,Simon,M,21,60.0049741219,Set,2017_04_15_1935,
8,3,,,,,0,1,1,23,,,,,1,0,1,0,,,,,left,8.9587426777,Simon,M,21,60.0049741219,Set,2017_04_15_1935,
8,3,,,,,0,1,1,23,,,,,2,0,2,0,,,,,left,0.775273948908,Simon,M,21,60.0049741219,Set,2017_04_15_1935,
8,3,,,,,0,1,1,23,,,,,3,0,3,0,,,,,left,0.941952852532,Simon,M,21,60.0049741219,Set,2017_04_15_1935,
8,3,,,,,0,1,1,23,,,,,4,0,4,0,,,,,down,0.641956010368,Simon,M,21,60.0049741219,Set,2017_04_15_1935,
8,3,,,,,0,1,1,23,,,,,5,0,5,0,,,,,down,0.716930747032,Simon,M,21,60.0049741219,Set,2017_04_15_1935,
8,3,,,,,0,1,1,23,,,,,6,0,6,0,,,,,left,0.583608466433,Simon,M,21,60.0049741219,Set,2017_04_15_1935,
8,3,,,,,0,1,1,23,,,,,7,0,7,0,,,,,left,0.342134037521,Simon,M,21,60.0049741219,Set,2017_04_15_1935,
8,3,,,,,0,1,1,23,,,,,8,0,8,0,,,,,left,0.458793204278,Simon,M,21,60.0049741219,Set,2017_04_15_1935,
8,3,,,,,0,1,1,23,,,,,9,0,9,0,,,,,left,0.425438554958,Simon,M,21,60.0049741219,Set,2017_04_15_1935,
8,3,,,,,0,1,1,23,,,,,10,0,10,0,,,,,down,0.642141537508,Simon,M,21,60.0049741219,Set,2017_04_15_1935,
8,3,,,,,0,1,1,23,,,,,11,0,11,0,,,,,down,0.342114695348,Simon,M,21,60.0049741219,Set,2017_04_15_1935,
8,3,,,,,0,1,1,23,,,,,12,0,12,0,,,,,left,0.425468949834,Simon,M,21,60.0049741219,Set,2017_04_15_1935,
8,3,,,,,0,1,1,23,,,,,13,0,13,0,,,,,down,0.64212416904,Simon,M,21,60.0049741219,Set,2017_04_15_1935,
8,3,,,,,0,1,1,23,,,,,14,0,14,0,,,,,down,0.325468160445,Simon,M,21,60.0049741219,Set,2017_04_15_1935,
8,3,,,,,0,1,1,23,,,,,15,0,15,0,,,,,left,0.35879004607,Simon,M,21,60.0049741219,Set,2017_04_15_1935,
8,3,,,,,0,1,1,23,,,,,16,0,16,0,,,,,down,0.375460660318,Simon,M,21,60.0049741219,Set,2017_04_15_1935,
8,3,,,,,0,1,1,23,,,,,17,0,17,0,,,,,left,0.342111932114,Simon,M,21,60.0049741219,Set,2017_04_15_1935,
8,3,,,,,0,1,1,23,,,,,18,0,18,0,,,,,down,0.358788072597,Simon,M,21,60.0049741219,Set,2017_04_15_1935,
8,3,,,,,0,1,1,23,,,,,19,0,19,0,,,,,left,0.558794388315,Simon,M,21,60.0049741219,Set,2017_04_15_1935,
8,3,,,,,0,1,1,23,,,,,20,0,20,0,,,,,down,0.458794783102,Simon,M,21,60.0049741219,Set,2017_04_15_1935,
8,3,,,,,0,1,1,23,,,,,21,0,21,0,,,,,left,0.342128116405,Simon,M,21,60.0049741219,Set,2017_04_15_1935,
8,3,,,,,0,1,1,23,,,,,22,0,22,0,,,,,down,0.392117853276,Simon,M,21,60.0049741219,Set,2017_04_15_1935,
8,3,,,,,0,1,1,23,,,,,23,0,23,0,,,,,down,0.508790835738,Simon,M,21,60.0049741219,Set,2017_04_15_1935,
3,3,,,,,0,2,2,18,,,,,0,0,0,0,,,,,left,3.77536197565,Simon,M,21,60.0049741219,Set,2017_04_15_1935,
3,3,,,,,0,2,2,18,,,,,1,0,1,0,,,,,left,0.433558729244,Simon,M,21,60.0049741219,Set,2017_04_15_1935,
3,3,,,,,0,2,2,18,,,,,2,0,2,0,,,,,left,0.683608071646,Simon,M,21,60.0049741219,Set,2017_04_15_1935,
3,3,,,,,0,2,2,18,,,,,3,0,3,0,,,,,left,0.300252238056,Simon,M,21,60.0049741219,Set,2017_04_15_1935,
3,3,,,,,0,2,2,18,,,,,4,0,4,0,,,,,down,0.633643598063,Simon,M,21,60.0049741219,Set,2017_04_15_1935,
3,3,,,,,0,2,2,18,,,,,5,0,5,0,,,,,down,0.342165616574,Simon,M,21,60.0049741219,Set,2017_04_15_1935,
3,3,,,,,0,2,2,18,,,,,6,0,6,0,,,,,left,0.408796362113,Simon,M,21,60.0049741219,Set,2017_04_15_1935,
3,3,,,,,0,2,2,18,,,,,7,0,7,0,,,,,left,0.358796756715,Simon,M,21,60.0049741219,Set,2017_04_15_1935,
3,3,,,,,0,2,2,18,,,,,8,0,8,0,,,,,left,0.258782940917,Simon,M,21,60.0049741219,Set,2017_04_15_1935,
3,3,,,,,0,2,2,18,,,,,9,0,9,0,,,,,left,0.275458291871,Simon,M,21,60.0049741219,Set,2017_04_15_1935,
3,3,,,,,0,2,2,18,,,,,10,0,10,0,,,,,left,0.258778598858,Simon,M,21,60.0049741219,Set,2017_04_15_1935,
3,3,,,,,0,2,2,18,,,,,11,0,11,0,,,,,left,0.44212259003,Simon,M,21,60.0049741219,Set,2017_04_15_1935,
3,3,,,,,0,2,2,18,,,,,12,0,12,0,,,,,left,0.358796756715,Simon,M,21,60.0049741219,Set,2017_04_15_1935,
3,3,,,,,0,2,2,18,,,,,13,0,13,0,,,,,left,0.325453949627,Simon,M,21,60.0049741219,Set,2017_04_15_1935,
3,3,,,,,0,2,2,18,,,,,14,0,14,0,,,,,left,0.358790046303,Simon,M,21,60.0049741219,Set,2017_04_15_1935,
3,3,,,,,0,2,2,18,,,,,15,0,15,0,,,,,left,0.258784519741,Simon,M,21,60.0049741219,Set,2017_04_15_1935,
3,3,,,,,0,2,2,18,,,,,16,0,16,0,,,,,left,0.27546263393,Simon,M,21,60.0049741219,Set,2017_04_15_1935,
3,3,,,,,0,2,2,18,,,,,17,0,17,0,,,,,left,0.258779388154,Simon,M,21,60.0049741219,Set,2017_04_15_1935,
3,3,,,,,0,2,2,18,,,,,18,0,18,0,,,,,left,0.192168774549,Simon,M,21,60.0049741219,Set,2017_04_15_1935,
3,3,,,,,0,2,2,18,,,,,19,0,19,0,,,,,left,0.292099300539,Simon,M,21,60.0049741219,Set,2017_04_15_1935,
3,3,,,,,0,2,2,18,,,,,20,0,20,0,,,,,down,0.442141932435,Simon,M,21,60.0049741219,Set,2017_04_15_1935,
3,3,,,,,0,2,2,18,,,,,21,0,21,0,,,,,down,0.325467765564,Simon,M,21,60.0049741219,Set,2017_04_15_1935,
4,2,,,,,0,3,3,11,,,,,0,0,0,0,,,,,down,1.42545473925,Simon,M,21,60.0049741219,Set,2017_04_15_1935,
4,2,,,,,0,3,3,11,,,,,1,0,1,0,,,,,down,0.325489081442,Simon,M,21,60.0049741219,Set,2017_04_15_1935,
2,3,,,,,0,4,4,17,,,,,0,0,0,0,,,,,left,1.10877030948,Simon,M,21,60.0049741219,Set,2017_04_15_1935,
2,3,,,,,0,4,4,17,,,,,1,0,1,0,,,,,down,0.675450002309,Simon,M,21,60.0049741219,Set,2017_04_15_1935,
2,3,,,,,0,4,4,17,,,,,2,0,2,0,,,,,left,0.458777414635,Simon,M,21,60.0049741219,Set,2017_04_15_1935,
2,3,,,,,0,4,4,17,,,,,3,0,3,0,,,,,down,0.308771098731,Simon,M,21,60.0049741219,Set,2017_04_15_1935,
2,3,,,,,0,4,4,17,,,,,4,0,4,0,,,,,down,0.508804651676,Simon,M,21,60.0049741219,Set,2017_04_15_1935,
2,3,,,,,0,4,4,17,,,,,5,0,5,0,,,,,left,0.525455923285,Simon,M,21,60.0049741219,Set,2017_04_15_1935,
2,3,,,,,0,4,4,17,,,,,6,0,6,0,,,,,down,0.458820441272,Simon,M,21,60.0049741219,Set,2017_04_15_1935,
2,3,,,,,0,4,4,17,,,,,7,0,7,0,,,,,left,0.458802283276,Simon,M,21,60.0049741219,Set,2017_04_15_1935,
2,3,,,,,0,4,4,17,,,,,8,0,8,0,,,,,down,0.392103248043,Simon,M,21,60.0049741219,Set,2017_04_15_1935,
2,3,,,,,0,4,4,17,,,,,9,0,9,0,,,,,down,0.342108774232,Simon,M,21,60.0049741219,Set,2017_04_15_1935,
6,2,,,,,0,5,5,13,,,,,0,0,0,0,,,,,left,1.35879241489,Simon,M,21,60.0049741219,Set,2017_04_15_1935,
6,2,,,,,0,5,5,13,,,,,1,0,1,0,,,,,down,0.558772282908,Simon,M,21,60.0049741219,Set,2017_04_15_1935,
6,2,,,,,0,5,5,13,,,,,2,0,2,0,,,,,down,0.308864651946,Simon,M,21,60.0049741219,Set,2017_04_15_1935,
6,2,,,,,0,5,5,13,,,,,3,0,3,0,,,,,left,0.725442107534,Simon,M,21,60.0049741219,Set,2017_04_15_1935,
6,2,,,,,0,5,5,13,,,,,4,0,4,0,,,,,down,0.825458291918,Simon,M,21,60.0049741219,Set,2017_04_15_1935,
6,2,,,,,0,5,5,13,,,,,5,0,5,0,,,,,down,0.308802677784,Simon,M,21,60.0049741219,Set,2017_04_15_1935,
5,2,,,,,0,6,6,12,,,,,0,0,0,0,,,,,left,0.842106800526,Simon,M,21,60.0049741219,Set,2017_04_15_1935,
5,2,,,,,0,6,6,12,,,,,1,0,1,0,,,,,left,0.575449607568,Simon,M,21,60.0049741219,Set,2017_04_15_1935,
5,2,,,,,0,6,6,12,,,,,2,0,2,0,,,,,left,0.30884649395,Simon,M,21,60.0049741219,Set,2017_04_15_1935,
5,2,,,,,0,6,6,12,,,,,3,0,3,0,,,,,down,0.508818862261,Simon,M,21,60.0049741219,Set,2017_04_15_1935,
5,2,,,,,0,6,6,12,,,,,4,0,4,0,,,,,down,0.375465002377,Simon,M,21,60.0049741219,Set,2017_04_15_1935,
2,2,,,,,0,7,7,9,,,,,0,0,0,0,,,,,left,0.792101274244,Simon,M,21,60.0049741219,Set,2017_04_15_1935,
2,2,,,,,0,7,7,9,,,,,1,0,1,0,,,,,left,0.458786098985,Simon,M,21,60.0049741219,Set,2017_04_15_1935,
2,2,,,,,0,7,7,9,,,,,2,0,2,0,,,,,left,0.375465002377,Simon,M,21,60.0049741219,Set,2017_04_15_1935,
2,2,,,,,0,7,7,9,,,,,3,0,3,0,,,,,down,0.475457502296,Simon,M,21,60.0049741219,Set,2017_04_15_1935,
2,2,,,,,0,7,7,9,,,,,4,0,4,0,,,,,down,0.275447634049,Simon,M,21,60.0049741219,Set,2017_04_15_1935,
2,2,,,,,0,7,7,9,,,,,5,0,5,0,,,,,left,0.492131274194,Simon,M,21,60.0049741219,Set,2017_04_15_1935,
2,2,,,,,0,7,7,9,,,,,6,0,6,0,,,,,left,0.692117853323,Simon,M,21,60.0049741219,Set,2017_04_15_1935,
2,2,,,,,0,7,7,9,,,,,7,0,7,0,,,,,left,0.308798730373,Simon,M,21,60.0049741219,Set,2017_04_15_1935,
2,2,,,,,0,7,7,9,,,,,8,0,8,0,,,,,down,0.342137195403,Simon,M,21,60.0049741219,Set,2017_04_15_1935,
2,2,,,,,0,7,7,9,,,,,9,0,9,0,,,,,left,0.325468555093,Simon,M,21,60.0049741219,Set,2017_04_15_1935,
2,2,,,,,0,7,7,9,,,,,10,0,10,0,,,,,down,0.542136800708,Simon,M,21,60.0049741219,Set,2017_04_15_1935,
2,2,,,,,0,7,7,9,,,,,11,0,11,0,,,,,down,0.375470923493,Simon,M,21,60.0049741219,Set,2017_04_15_1935,
2,2,,,,,0,7,7,9,,,,,12,0,12,0,,,,,left,0.458780967165,Simon,M,21,60.0049741219,Set,2017_04_15_1935,
2,2,,,,,0,7,7,9,,,,,13,0,13,0,,,,,down,0.508792414563,Simon,M,21,60.0049741219,Set,2017_04_15_1935,
2,2,,,,,0,7,7,9,,,,,14,0,14,0,,,,,down,0.308769519906,Simon,M,21,60.0049741219,Set,2017_04_15_1935,
7,1,,,,,0,8,8,6,,,,,0,0,0,0,,,,,down,1.67545276554,Simon,M,21,60.0049741219,Set,2017_04_15_1935,
7,1,,,,,0,8,8,6,,,,,1,0,1,0,,,,,down,0.475471712882,Simon,M,21,60.0049741219,Set,2017_04_15_1935,
7,3,,,,,0,9,9,22,,,,,0,0,0,0,,,,,down,1.0587857042,Simon,M,21,60.0049741219,Set,2017_04_15_1935,
7,3,,,,,0,9,9,22,,,,,1,0,1,0,,,,,down,0.458792414749,Simon,M,21,60.0049741219,Set,2017_04_15_1935,
3,1,,,,,0,10,10,2,,,,,0,0,0,0,,,,,down,1.24213759019,Simon,M,21,60.0049741219,Set,2017_04_15_1935,
3,1,,,,,0,10,10,2,,,,,1,0,1,0,,,,,down,0.308771493612,Simon,M,21,60.0049741219,Set,2017_04_15_1935,
6,3,,,,,0,11,11,21,,,,,0,0,0,0,,,,,left,0.683575308416,Simon,M,21,60.0049741219,Set,2017_04_15_1935,
6,3,,,,,0,11,11,21,,,,,1,0,1,0,,,,,down,0.642177064205,Simon,M,21,60.0049741219,Set,2017_04_15_1935,
6,3,,,,,0,11,11,21,,,,,2,0,2,0,,,,,down,0.342110353289,Simon,M,21,60.0049741219,Set,2017_04_15_1935,
4,3,,,,,0,12,12,19,,,,,0,0,0,0,,,,,left,0.642137195449,Simon,M,21,60.0049741219,Set,2017_04_15_1935,
4,3,,,,,0,12,12,19,,,,,1,0,1,0,,,,,down,0.375445265323,Simon,M,21,60.0049741219,Set,2017_04_15_1935,
4,3,,,,,0,12,12,19,,,,,2,0,2,0,,,,,down,0.358893862693,Simon,M,21,60.0049741219,Set,2017_04_15_1935,
5,1,,,,,0,13,13,4,,,,,0,0,0,0,,,,,left,0.43357293983,Simon,M,21,60.0049741219,Set,2017_04_15_1935,
5,1,,,,,0,13,13,4,,,,,1,0,1,0,,,,,down,0.392136800569,Simon,M,21,60.0049741219,Set,2017_04_15_1935,
5,1,,,,,0,13,13,4,,,,,2,0,2,0,,,,,left,0.542121800594,Simon,M,21,60.0049741219,Set,2017_04_15_1935,
5,1,,,,,0,13,13,4,,,,,3,0,3,0,,,,,left,0.442201143131,Simon,M,21,60.0049741219,Set,2017_04_15_1935,
5,1,,,,,0,13,13,4,,,,,4,0,4,0,,,,,left,0.725458291825,Simon,M,21,60.0049741219,Set,2017_04_15_1935,
5,1,,,,,0,13,13,4,,,,,5,0,5,0,,,,,left,0.42544684466,Simon,M,21,60.0049741219,Set,2017_04_15_1935,
5,1,,,,,0,13,13,4,,,,,6,0,6,0,,,,,left,0.475453555118,Simon,M,21,60.0049741219,Set,2017_04_15_1935,
5,1,,,,,0,13,13,4,,,,,7,0,7,0,,,,,left,0.342132853344,Simon,M,21,60.0049741219,Set,2017_04_15_1935,
5,1,,,,,0,13,13,4,,,,,8,0,8,0,,,,,left,0.342172327219,Simon,M,21,60.0049741219,Set,2017_04_15_1935,
5,1,,,,,0,13,13,4,,,,,9,0,9,0,,,,,left,0.358798730653,Simon,M,21,60.0049741219,Set,2017_04_15_1935,
5,1,,,,,0,13,13,4,,,,,10,0,10,0,,,,,left,0.341962326085,Simon,M,21,60.0049741219,Set,2017_04_15_1935,
5,1,,,,,0,13,13,4,,,,,11,0,11,0,,,,,left,0.358790441183,Simon,M,21,60.0049741219,Set,2017_04_15_1935,
5,1,,,,,0,13,13,4,,,,,12,0,12,0,,,,,left,0.492046800209,Simon,M,21,60.0049741219,Set,2017_04_15_1935,
5,1,,,,,0,13,13,4,,,,,13,0,13,0,,,,,left,0.333574518794,Simon,M,21,60.0049741219,Set,2017_04_15_1935,
5,1,,,,,0,13,13,4,,,,,14,0,14,0,,,,,left,0.333579650382,Simon,M,21,60.0049741219,Set,2017_04_15_1935,
5,1,,,,,0,13,13,4,,,,,15,0,15,0,,,,,down,1.08358399267,Simon,M,21,60.0049741219,Set,2017_04_15_1935,
5,1,,,,,0,13,13,4,,,,,16,0,16,0,,,,,left,0.816984431585,Simon,M,21,60.0049741219,Set,2017_04_15_1935,
5,1,,,,,0,13,13,4,,,,,17,0,17,0,,,,,down,0.458801888395,Simon,M,21,60.0049741219,Set,2017_04_15_1935,
5,1,,,,,0,13,13,4,,,,,18,0,18,0,,,,,left,0.366914168,Simon,M,21,60.0049741219,Set,2017_04_15_1935,
5,1,,,,,0,13,13,4,,,,,19,0,19,0,,,,,left,0.558772677789,Simon,M,21,60.0049741219,Set,2017_04_15_1935,
5,1,,,,,0,13,13,4,,,,,20,0,20,0,,,,,down,0.742130484898,Simon,M,21,60.0049741219,Set,2017_04_15_1935,
5,1,,,,,0,13,13,4,,,,,21,0,21,0,,,,,left,0.325504081789,Simon,M,21,60.0049741219,Set,2017_04_15_1935,
5,1,,,,,0,13,13,4,,,,,22,0,22,0,,,,,left,0.450244738255,Simon,M,21,60.0049741219,Set,2017_04_15_1935,
5,1,,,,,0,13,13,4,,,,,23,0,23,0,,,,,down,0.575483950088,Simon,M,21,60.0049741219,Set,2017_04_15_1935,
5,1,,,,,0,13,13,4,,,,,24,0,24,0,,,,,down,0.408821625169,Simon,M,21,60.0049741219,Set,2017_04_15_1935,
5,1,,,,,0,13,13,4,,,,,25,0,25,0,,,,,left,0.392119037686,Simon,M,21,60.0049741219,Set,2017_04_15_1935,
5,1,,,,,0,13,13,4,,,,,26,0,26,0,,,,,down,0.375451975968,Simon,M,21,60.0049741219,Set,2017_04_15_1935,
5,1,,,,,0,13,13,4,,,,,27,0,27,0,,,,,down,0.658790046116,Simon,M,21,60.0049741219,Set,2017_04_15_1935,
1,1,,,,,0,14,14,0,,,,,0,0,0,0,,,,,down,0.850251843454,Simon,M,21,60.0049741219,Set,2017_04_15_1935,
1,1,,,,,0,14,14,0,,,,,1,0,1,0,,,,,down,0.325474081561,Simon,M,21,60.0049741219,Set,2017_04_15_1935,
5,3,,,,,0,15,15,20,,,,,0,0,0,0,,,,,left,0.758816493675,Simon,M,21,60.0049741219,Set,2017_04_15_1935,
5,3,,,,,0,15,15,20,,,,,1,0,1,0,,,,,down,0.342132458463,Simon,M,21,60.0049741219,Set,2017_04_15_1935,
5,3,,,,,0,15,15,20,,,,,2,0,2,0,,,,,down,0.242107590195,Simon,M,21,60.0049741219,Set,2017_04_15_1935,
8,1,,,,,0,16,16,7,,,,,0,0,0,0,,,,,down,0.425464607775,Simon,M,21,60.0049741219,Set,2017_04_15_1935,
8,1,,,,,0,16,16,7,,,,,1,0,1,0,,,,,down,0.30879636202,Simon,M,21,60.0049741219,Set,2017_04_15_1935,
1,2,,,,,0,17,17,8,,,,,0,0,0,0,,,,,down,0.942126537673,Simon,M,21,60.0049741219,Set,2017_04_15_1935,
1,2,,,,,0,17,17,8,,,,,1,0,1,0,,,,,down,0.275453554932,Simon,M,21,60.0049741219,Set,2017_04_15_1935,
6,1,,,,,0,18,18,5,,,,,0,0,0,0,,,,,down,0.542072852841,Simon,M,21,60.0049741219,Set,2017_04_15_1935,
6,1,,,,,0,18,18,5,,,,,1,0,1,0,,,,,down,0.27545552887,Simon,M,21,60.0049741219,Set,2017_04_15_1935,
3,2,,,,,0,19,19,10,,,,,0,0,0,0,,,,,down,1.9921060109,Simon,M,21,60.0049741219,Set,2017_04_15_1935,
3,2,,,,,0,19,19,10,,,,,1,0,1,0,,,,,down,0.308627019171,Simon,M,21,60.0049741219,Set,2017_04_15_1935,
8,2,,,,,0,20,20,15,,,,,0,0,0,0,,,,,down,0.78358991351,Simon,M,21,60.0049741219,Set,2017_04_15_1935,
8,2,,,,,0,20,20,15,,,,,1,0,1,0,,,,,left,0.57589724171,Simon,M,21,60.0049741219,Set,2017_04_15_1935,
8,2,,,,,0,20,20,15,,,,,2,0,2,0,,,,,down,0.35876201978,Simon,M,21,60.0049741219,Set,2017_04_15_1935,
8,2,,,,,0,20,20,15,,,,,3,0,3,0,,,,,down,0.30861833482,Simon,M,21,60.0049741219,Set,2017_04_15_1935,
8,2,,,,,0,20,20,15,,,,,4,0,4,0,,,,,left,0.742248116992,Simon,M,21,60.0049741219,Set,2017_04_15_1935,
8,2,,,,,0,20,20,15,,,,,5,0,5,0,,,,,down,0.25879044109,Simon,M,21,60.0049741219,Set,2017_04_15_1935,
8,2,,,,,0,20,20,15,,,,,6,0,6,0,,,,,down,0.24211311643,Simon,M,21,60.0049741219,Set,2017_04_15_1935,
8,2,,,,,0,20,20,15,,,,,7,0,7,0,,,,,left,0.408755309181,Simon,M,21,60.0049741219,Set,2017_04_15_1935,
8,2,,,,,0,20,20,15,,,,,8,0,8,0,,,,,down,0.225387238897,Simon,M,21,60.0049741219,Set,2017_04_15_1935,
8,2,,,,,0,20,20,15,,,,,9,0,9,0,,,,,down,0.258774651447,Simon,M,21,60.0049741219,Set,2017_04_15_1935,
8,2,,,,,0,20,20,15,,,,,10,0,10,0,,,,,left,0.316976931645,Simon,M,21,60.0049741219,Set,2017_04_15_1935,
8,2,,,,,0,20,20,15,,,,,11,0,11,0,,,,,down,0.250266448827,Simon,M,21,60.0049741219,Set,2017_04_15_1935,
8,2,,,,,0,20,20,15,,,,,12,0,12,0,,,,,down,0.342125748051,Simon,M,21,60.0049741219,Set,2017_04_15_1935,
8,2,,,,,0,20,20,15,,,,,13,0,13,0,,,,,left,0.308782940963,Simon,M,21,60.0049741219,Set,2017_04_15_1935,
8,2,,,,,0,20,20,15,,,,,14,0,14,0,,,,,left,0.442138379673,Simon,M,21,60.0049741219,Set,2017_04_15_1935,
8,2,,,,,0,20,20,15,,,,,15,0,15,0,,,,,down,0.292123774299,Simon,M,21,60.0049741219,Set,2017_04_15_1935,
8,2,,,,,0,20,20,15,,,,,16,0,16,0,,,,,left,0.358792020008,Simon,M,21,60.0049741219,Set,2017_04_15_1935,
8,2,,,,,0,20,20,15,,,,,17,0,17,0,,,,,down,0.392122195335,Simon,M,21,60.0049741219,Set,2017_04_15_1935,
8,2,,,,,0,20,20,15,,,,,18,0,18,0,,,,,left,0.558777019847,Simon,M,21,60.0049741219,Set,2017_04_15_1935,
8,2,,,,,0,20,20,15,,,,,19,0,19,0,,,,,down,0.442104432266,Simon,M,21,60.0049741219,Set,2017_04_15_1935,
8,2,,,,,0,20,20,15,,,,,20,0,20,0,,,,,down,0.192106405739,Simon,M,21,60.0049741219,Set,2017_04_15_1935,
8,2,,,,,0,20,20,15,,,,,21,0,21,0,,,,,left,0.375463028671,Simon,M,21,60.0049741219,Set,2017_04_15_1935,
8,2,,,,,0,20,20,15,,,,,22,0,22,0,,,,,down,0.325472107623,Simon,M,21,60.0049741219,Set,2017_04_15_1935,
8,2,,,,,0,20,20,15,,,,,23,0,23,0,,,,,down,0.692110353149,Simon,M,21,60.0049741219,Set,2017_04_15_1935,
8,2,,,,,0,20,20,15,,,,,24,0,24,0,,,,,left,0.508830704261,Simon,M,21,60.0049741219,Set,2017_04_15_1935,
8,2,,,,,0,20,20,15,,,,,25,0,25,0,,,,,down,0.408844125457,Simon,M,21,60.0049741219,Set,2017_04_15_1935,
8,2,,,,,0,20,20,15,,,,,26,0,26,0,,,,,down,0.3754638182,Simon,M,21,60.0049741219,Set,2017_04_15_1935,
7,2,,,,,0,21,21,14,,,,,0,0,0,0,,,,,left,0.925465791952,Simon,M,21,60.0049741219,Set,2017_04_15_1935,
7,2,,,,,0,21,21,14,,,,,1,0,1,0,,,,,down,0.392119432101,Simon,M,21,60.0049741219,Set,2017_04_15_1935,
7,2,,,,,0,21,21,14,,,,,2,0,2,0,,,,,down,0.258822809672,Simon,M,21,60.0049741219,Set,2017_04_15_1935,
2,1,,,,,0,22,22,1,,,,,0,0,0,0,,,,,left,0.625474081608,Simon,M,21,60.0049741219,Set,2017_04_15_1935,
2,1,,,,,0,22,22,1,,,,,1,0,1,0,,,,,down,0.358785704244,Simon,M,21,60.0049741219,Set,2017_04_15_1935,
2,1,,,,,0,22,22,1,,,,,2,0,2,0,,,,,down,0.242153774481,Simon,M,21,60.0049741219,Set,2017_04_15_1935,
1,3,,,,,0,23,23,16,,,,,0,0,0,0,,,,,down,0.792113511125,Simon,M,21,60.0049741219,Set,2017_04_15_1935,
1,3,,,,,0,23,23,16,,,,,1,0,1,0,,,,,down,0.42544210772,Simon,M,21,60.0049741219,Set,2017_04_15_1935,
1,3,,,,,0,23,23,16,,,,,2,0,2,0,,,,,left,0.458829520037,Simon,M,21,60.0049741219,Set,2017_04_15_1935,
1,3,,,,,0,23,23,16,,,,,3,0,3,0,,,,,down,0.458790046163,Simon,M,21,60.0049741219,Set,2017_04_15_1935,
1,3,,,,,0,23,23,16,,,,,4,0,4,0,,,,,left,0.908779388294,Simon,M,21,60.0049741219,Set,2017_04_15_1935,
1,3,,,,,0,23,23,16,,,,,5,0,5,0,,,,,down,0.292192459106,Simon,M,21,60.0049741219,Set,2017_04_15_1935,
1,3,,,,,0,23,23,16,,,,,6,0,6,0,,,,,down,0.32547842362,Simon,M,21,60.0049741219,Set,2017_04_15_1935,
