size,n,trials_2.thisRepN,trials_2.thisTrialN,trials_2.thisN,trials_2.thisIndex,trials.thisRepN,trials.thisTrialN,trials.thisN,trials.thisIndex,trials_3.thisRepN,trials_3.thisTrialN,trials_3.thisN,trials_3.thisIndex,answer.keys,answer.rt,participant,gender,age,frameRate,expName,date,
"[2.7, 2.7]",5,0,0,0,10,,,,,0,0,0,0,right,9.72537833778,CHNA,f,22,59.9941268445,Set,2017_12_21_1754,
"[2.7, 2.7]",5,0,0,0,10,,,,,1,0,1,0,right,1.37543806178,CHNA,f,22,59.9941268445,Set,2017_12_21_1754,
"[2.7, 2.7]",5,0,0,0,10,,,,,2,0,2,0,down,0.925299153081,CHNA,f,22,59.9941268445,Set,2017_12_21_1754,
"[2.7, 2.7]",5,0,0,0,10,,,,,3,0,3,0,left,2.24212357064,CHNA,f,22,59.9941268445,Set,2017_12_21_1754,
"[2.7, 2.7]",5,0,0,0,10,,,,,4,0,4,0,down,0.908803000581,CHNA,f,22,59.9941268445,Set,2017_12_21_1754,
"[2.7, 2.7]",5,0,0,0,10,,,,,5,0,5,0,down,0.958832250792,CHNA,f,22,59.9941268445,Set,2017_12_21_1754,
"[2.9, 2.9]",4,0,1,1,21,,,,,0,0,0,0,right,0.933563413681,CHNA,f,22,59.9941268445,Set,2017_12_21_1754,
"[2.9, 2.9]",4,0,1,1,21,,,,,1,0,1,0,down,1.45877501357,CHNA,f,22,59.9941268445,Set,2017_12_21_1754,
"[2.9, 2.9]",4,0,1,1,21,,,,,2,0,2,0,left,1.87548898323,CHNA,f,22,59.9941268445,Set,2017_12_21_1754,
"[2.9, 2.9]",4,0,1,1,21,,,,,3,0,3,0,down,0.8255134176,CHNA,f,22,59.9941268445,Set,2017_12_21_1754,
"[2.9, 2.9]",4,0,1,1,21,,,,,4,0,4,0,down,0.575436245999,CHNA,f,22,59.9941268445,Set,2017_12_21_1754,
"[3.0, 3.0]",2,0,2,2,25,,,,,0,0,0,0,right,1.11684281251,CHNA,f,22,59.9941268445,Set,2017_12_21_1754,
"[3.0, 3.0]",2,0,2,2,25,,,,,1,0,1,0,left,1.5254342329,CHNA,f,22,59.9941268445,Set,2017_12_21_1754,
"[3.0, 3.0]",2,0,2,2,25,,,,,2,0,2,0,down,0.60879723751,CHNA,f,22,59.9941268445,Set,2017_12_21_1754,
"[3.0, 3.0]",2,0,2,2,25,,,,,3,0,3,0,down,0.758779197931,CHNA,f,22,59.9941268445,Set,2017_12_21_1754,
"[2.9, 2.9]",2,0,3,3,19,,,,,0,0,0,0,right,0.375502009643,CHNA,f,22,59.9941268445,Set,2017_12_21_1754,
"[2.9, 2.9]",2,0,3,3,19,,,,,1,0,1,0,down,1.54209104425,CHNA,f,22,59.9941268445,Set,2017_12_21_1754,
"[2.9, 2.9]",2,0,3,3,19,,,,,2,0,2,0,right,0.942159649916,CHNA,f,22,59.9941268445,Set,2017_12_21_1754,
"[2.9, 2.9]",2,0,3,3,19,,,,,3,0,3,0,left,0.758788276929,CHNA,f,22,59.9941268445,Set,2017_12_21_1754,
"[2.9, 2.9]",2,0,3,3,19,,,,,4,0,4,0,left,1.15877911891,CHNA,f,22,59.9941268445,Set,2017_12_21_1754,
"[2.9, 2.9]",2,0,3,3,19,,,,,5,0,5,0,down,0.708828895586,CHNA,f,22,59.9941268445,Set,2017_12_21_1754,
"[2.9, 2.9]",2,0,3,3,19,,,,,6,0,6,0,down,0.775451798807,CHNA,f,22,59.9941268445,Set,2017_12_21_1754,
"[2.8, 2.8]",5,0,4,4,16,,,,,0,0,0,0,right,0.450249435613,CHNA,f,22,59.9941268445,Set,2017_12_21_1754,
"[2.8, 2.8]",5,0,4,4,16,,,,,1,0,1,0,left,0.95879119786,CHNA,f,22,59.9941268445,Set,2017_12_21_1754,
"[2.8, 2.8]",5,0,4,4,16,,,,,2,0,2,0,left,0.708807974355,CHNA,f,22,59.9941268445,Set,2017_12_21_1754,
"[2.8, 2.8]",5,0,4,4,16,,,,,3,0,3,0,left,0.908777737408,CHNA,f,22,59.9941268445,Set,2017_12_21_1754,
"[2.8, 2.8]",5,0,4,4,16,,,,,4,0,4,0,left,0.558648381266,CHNA,f,22,59.9941268445,Set,2017_12_21_1754,
"[2.8, 2.8]",5,0,4,4,16,,,,,5,0,5,0,down,0.442122149747,CHNA,f,22,59.9941268445,Set,2017_12_21_1754,
"[2.8, 2.8]",5,0,4,4,16,,,,,6,0,6,0,left,0.658792145317,CHNA,f,22,59.9941268445,Set,2017_12_21_1754,
"[2.8, 2.8]",5,0,4,4,16,,,,,7,0,7,0,left,1.00884334301,CHNA,f,22,59.9941268445,Set,2017_12_21_1754,
"[2.8, 2.8]",5,0,4,4,16,,,,,8,0,8,0,down,0.542131702299,CHNA,f,22,59.9941268445,Set,2017_12_21_1754,
"[2.8, 2.8]",5,0,4,4,16,,,,,9,0,9,0,left,0.70878902683,CHNA,f,22,59.9941268445,Set,2017_12_21_1754,
"[2.8, 2.8]",5,0,4,4,16,,,,,10,0,10,0,down,0.67546000937,CHNA,f,22,59.9941268445,Set,2017_12_21_1754,
"[2.8, 2.8]",5,0,4,4,16,,,,,11,0,11,0,left,1.27547035157,CHNA,f,22,59.9941268445,Set,2017_12_21_1754,
"[2.8, 2.8]",5,0,4,4,16,,,,,12,0,12,0,left,0.808791079558,CHNA,f,22,59.9941268445,Set,2017_12_21_1754,
"[2.8, 2.8]",5,0,4,4,16,,,,,13,0,13,0,left,1.66689061536,CHNA,f,22,59.9941268445,Set,2017_12_21_1754,
"[2.8, 2.8]",5,0,4,4,16,,,,,14,0,14,0,left,0.575452430407,CHNA,f,22,59.9941268445,Set,2017_12_21_1754,
"[2.8, 2.8]",5,0,4,4,16,,,,,15,0,15,0,left,0.54214196559,CHNA,f,22,59.9941268445,Set,2017_12_21_1754,
"[2.8, 2.8]",5,0,4,4,16,,,,,16,0,16,0,left,0.9754815622,CHNA,f,22,59.9941268445,Set,2017_12_21_1754,
"[2.8, 2.8]",5,0,4,4,16,,,,,17,0,17,0,left,0.583579321741,CHNA,f,22,59.9941268445,Set,2017_12_21_1754,
"[2.8, 2.8]",5,0,4,4,16,,,,,18,0,18,0,left,0.52547607536,CHNA,f,22,59.9941268445,Set,2017_12_21_1754,
"[2.8, 2.8]",5,0,4,4,16,,,,,19,0,19,0,left,0.425461390987,CHNA,f,22,59.9941268445,Set,2017_12_21_1754,
"[2.8, 2.8]",5,0,4,4,16,,,,,20,0,20,0,left,0.425464943633,CHNA,f,22,59.9941268445,Set,2017_12_21_1754,
"[2.8, 2.8]",5,0,4,4,16,,,,,21,0,21,0,left,0.942142676096,CHNA,f,22,59.9941268445,Set,2017_12_21_1754,
"[2.8, 2.8]",5,0,4,4,16,,,,,22,0,22,0,left,0.575478877989,CHNA,f,22,59.9941268445,Set,2017_12_21_1754,
"[2.8, 2.8]",5,0,4,4,16,,,,,23,0,23,0,left,0.375554509927,CHNA,f,22,59.9941268445,Set,2017_12_21_1754,
"[2.8, 2.8]",5,0,4,4,16,,,,,24,0,24,0,left,0.442126491806,CHNA,f,22,59.9941268445,Set,2017_12_21_1754,
"[2.8, 2.8]",5,0,4,4,16,,,,,25,0,25,0,left,0.175187244546,CHNA,f,22,59.9941268445,Set,2017_12_21_1754,
"[2.8, 2.8]",5,0,4,4,16,,,,,26,0,26,0,left,0.358735855436,CHNA,f,22,59.9941268445,Set,2017_12_21_1754,
"[2.8, 2.8]",5,0,4,4,16,,,,,27,0,27,0,down,1.62544654869,CHNA,f,22,59.9941268445,Set,2017_12_21_1754,
"[2.8, 2.8]",5,0,4,4,16,,,,,28,0,28,0,left,0.342135097133,CHNA,f,22,59.9941268445,Set,2017_12_21_1754,
"[2.8, 2.8]",5,0,4,4,16,,,,,29,0,29,0,left,0.500243554125,CHNA,f,22,59.9941268445,Set,2017_12_21_1754,
"[2.8, 2.8]",5,0,4,4,16,,,,,30,0,30,0,left,0.558769960888,CHNA,f,22,59.9941268445,Set,2017_12_21_1754,
"[2.8, 2.8]",5,0,4,4,16,,,,,31,0,31,0,left,0.458780934685,CHNA,f,22,59.9941268445,Set,2017_12_21_1754,
"[2.8, 2.8]",5,0,4,4,16,,,,,32,0,32,0,left,0.383610348101,CHNA,f,22,59.9941268445,Set,2017_12_21_1754,
"[2.8, 2.8]",5,0,4,4,16,,,,,33,0,33,0,left,0.358842829824,CHNA,f,22,59.9941268445,Set,2017_12_21_1754,
"[2.8, 2.8]",5,0,4,4,16,,,,,34,0,34,0,left,0.908769053058,CHNA,f,22,59.9941268445,Set,2017_12_21_1754,
"[2.8, 2.8]",5,0,4,4,16,,,,,35,0,35,0,left,0.908640368027,CHNA,f,22,59.9941268445,Set,2017_12_21_1754,
"[2.8, 2.8]",5,0,4,4,16,,,,,36,0,36,0,left,0.492139952374,CHNA,f,22,59.9941268445,Set,2017_12_21_1754,
"[2.8, 2.8]",5,0,4,4,16,,,,,37,0,37,0,left,0.392128820764,CHNA,f,22,59.9941268445,Set,2017_12_21_1754,
"[2.8, 2.8]",5,0,4,4,16,,,,,38,0,38,0,left,1.07546782529,CHNA,f,22,59.9941268445,Set,2017_12_21_1754,
"[2.8, 2.8]",5,0,4,4,16,,,,,39,0,39,0,left,0.442122939159,CHNA,f,22,59.9941268445,Set,2017_12_21_1754,
"[2.8, 2.8]",5,0,4,4,16,,,,,40,0,40,0,left,0.525483180536,CHNA,f,22,59.9941268445,Set,2017_12_21_1754,
"[2.8, 2.8]",5,0,4,4,16,,,,,41,0,41,0,left,1.57548835163,CHNA,f,22,59.9941268445,Set,2017_12_21_1754,
"[2.8, 2.8]",5,0,4,4,16,,,,,42,0,42,0,left,0.491954030236,CHNA,f,22,59.9941268445,Set,2017_12_21_1754,
"[2.8, 2.8]",5,0,4,4,16,,,,,43,0,43,0,left,0.842120097019,CHNA,f,22,59.9941268445,Set,2017_12_21_1754,
"[2.8, 2.8]",5,0,4,4,16,,,,,44,0,44,0,down,0.842114965431,CHNA,f,22,59.9941268445,Set,2017_12_21_1754,
"[2.8, 2.8]",5,0,4,4,16,,,,,45,0,45,0,down,0.875428193365,CHNA,f,22,59.9941268445,Set,2017_12_21_1754,
"[3.0, 3.0]",3,0,5,5,26,,,,,0,0,0,0,right,1.70877600054,CHNA,f,22,59.9941268445,Set,2017_12_21_1754,
"[3.0, 3.0]",3,0,5,5,26,,,,,1,0,1,0,left,0.692110110074,CHNA,f,22,59.9941268445,Set,2017_12_21_1754,
"[3.0, 3.0]",3,0,5,5,26,,,,,2,0,2,0,down,1.5754615094,CHNA,f,22,59.9941268445,Set,2017_12_21_1754,
"[3.0, 3.0]",3,0,5,5,26,,,,,3,0,3,0,left,0.758790250518,CHNA,f,22,59.9941268445,Set,2017_12_21_1754,
"[3.0, 3.0]",3,0,5,5,26,,,,,4,0,4,0,left,0.608792895335,CHNA,f,22,59.9941268445,Set,2017_12_21_1754,
"[3.0, 3.0]",3,0,5,5,26,,,,,5,0,5,0,left,0.875446351478,CHNA,f,22,59.9941268445,Set,2017_12_21_1754,
"[3.0, 3.0]",3,0,5,5,26,,,,,6,0,6,0,left,0.64215546567,CHNA,f,22,59.9941268445,Set,2017_12_21_1754,
"[3.0, 3.0]",3,0,5,5,26,,,,,7,0,7,0,down,0.675515667535,CHNA,f,22,59.9941268445,Set,2017_12_21_1754,
"[3.0, 3.0]",3,0,5,5,26,,,,,8,0,8,0,down,1.042145913,CHNA,f,22,59.9941268445,Set,2017_12_21_1754,
"[3.0, 3.0]",3,0,5,5,26,,,,,9,0,9,0,left,0.792120847153,CHNA,f,22,59.9941268445,Set,2017_12_21_1754,
"[3.0, 3.0]",3,0,5,5,26,,,,,10,0,10,0,left,0.758738539764,CHNA,f,22,59.9941268445,Set,2017_12_21_1754,
"[3.0, 3.0]",3,0,5,5,26,,,,,11,0,11,0,left,0.758763803053,CHNA,f,22,59.9941268445,Set,2017_12_21_1754,
"[3.0, 3.0]",3,0,5,5,26,,,,,12,0,12,0,left,0.775422982755,CHNA,f,22,59.9941268445,Set,2017_12_21_1754,
"[3.0, 3.0]",3,0,5,5,26,,,,,13,0,13,0,down,0.892113031237,CHNA,f,22,59.9941268445,Set,2017_12_21_1754,
"[3.0, 3.0]",3,0,5,5,26,,,,,14,0,14,0,left,0.55876364524,CHNA,f,22,59.9941268445,Set,2017_12_21_1754,
"[3.0, 3.0]",3,0,5,5,26,,,,,15,0,15,0,left,0.525472127832,CHNA,f,22,59.9941268445,Set,2017_12_21_1754,
"[3.0, 3.0]",3,0,5,5,26,,,,,16,0,16,0,left,0.708820606,CHNA,f,22,59.9941268445,Set,2017_12_21_1754,
"[3.0, 3.0]",3,0,5,5,26,,,,,17,0,17,0,left,0.492144689313,CHNA,f,22,59.9941268445,Set,2017_12_21_1754,
"[3.0, 3.0]",3,0,5,5,26,,,,,18,0,18,0,left,0.592164505157,CHNA,f,22,59.9941268445,Set,2017_12_21_1754,
"[3.0, 3.0]",3,0,5,5,26,,,,,19,0,19,0,left,0.525536470348,CHNA,f,22,59.9941268445,Set,2017_12_21_1754,
"[3.0, 3.0]",3,0,5,5,26,,,,,20,0,20,0,down,0.708800474298,CHNA,f,22,59.9941268445,Set,2017_12_21_1754,
"[3.0, 3.0]",3,0,5,5,26,,,,,21,0,21,0,down,0.642122702324,CHNA,f,22,59.9941268445,Set,2017_12_21_1754,
"[2.7, 2.7]",3,0,6,6,8,,,,,0,0,0,0,right,0.292137820856,CHNA,f,22,59.9941268445,Set,2017_12_21_1754,
"[2.7, 2.7]",3,0,6,6,8,,,,,1,0,1,0,left,1.92539191688,CHNA,f,22,59.9941268445,Set,2017_12_21_1754,
"[2.7, 2.7]",3,0,6,6,8,,,,,2,0,2,0,left,0.442127675982,CHNA,f,22,59.9941268445,Set,2017_12_21_1754,
"[2.7, 2.7]",3,0,6,6,8,,,,,3,0,3,0,down,0.82548183843,CHNA,f,22,59.9941268445,Set,2017_12_21_1754,
"[2.7, 2.7]",3,0,6,6,8,,,,,4,0,4,0,left,1.00877821096,CHNA,f,22,59.9941268445,Set,2017_12_21_1754,
"[2.7, 2.7]",3,0,6,6,8,,,,,5,0,5,0,left,0.708749158191,CHNA,f,22,59.9941268445,Set,2017_12_21_1754,
"[2.7, 2.7]",3,0,6,6,8,,,,,6,0,6,0,left,0.608801974333,CHNA,f,22,59.9941268445,Set,2017_12_21_1754,
"[2.7, 2.7]",3,0,6,6,8,,,,,7,0,7,0,left,0.875486614765,CHNA,f,22,59.9941268445,Set,2017_12_21_1754,
"[2.7, 2.7]",3,0,6,6,8,,,,,8,0,8,0,left,0.508809000719,CHNA,f,22,59.9941268445,Set,2017_12_21_1754,
"[2.7, 2.7]",3,0,6,6,8,,,,,9,0,9,0,down,1.50876360561,CHNA,f,22,59.9941268445,Set,2017_12_21_1754,
"[2.7, 2.7]",3,0,6,6,8,,,,,10,0,10,0,left,0.892112636473,CHNA,f,22,59.9941268445,Set,2017_12_21_1754,
"[2.7, 2.7]",3,0,6,6,8,,,,,11,0,11,0,down,0.692116425955,CHNA,f,22,59.9941268445,Set,2017_12_21_1754,
"[2.7, 2.7]",3,0,6,6,8,,,,,12,0,12,0,left,0.42546849628,CHNA,f,22,59.9941268445,Set,2017_12_21_1754,
"[2.7, 2.7]",3,0,6,6,8,,,,,13,0,13,0,left,0.708788237418,CHNA,f,22,59.9941268445,Set,2017_12_21_1754,
"[2.7, 2.7]",3,0,6,6,8,,,,,14,0,14,0,left,0.558811408584,CHNA,f,22,59.9941268445,Set,2017_12_21_1754,
"[2.7, 2.7]",3,0,6,6,8,,,,,15,0,15,0,down,0.542099728598,CHNA,f,22,59.9941268445,Set,2017_12_21_1754,
"[2.7, 2.7]",3,0,6,6,8,,,,,16,0,16,0,left,0.542115518125,CHNA,f,22,59.9941268445,Set,2017_12_21_1754,
"[2.7, 2.7]",3,0,6,6,8,,,,,17,0,17,0,down,0.642115991679,CHNA,f,22,59.9941268445,Set,2017_12_21_1754,
"[2.7, 2.7]",3,0,6,6,8,,,,,18,0,18,0,down,0.592119110166,CHNA,f,22,59.9941268445,Set,2017_12_21_1754,
"[2.8, 2.8]",1,0,7,7,12,,,,,0,0,0,0,down,0.708803632297,CHNA,f,22,59.9941268445,Set,2017_12_21_1754,
"[2.8, 2.8]",1,0,7,7,12,,,,,1,0,1,0,left,0.458763171453,CHNA,f,22,59.9941268445,Set,2017_12_21_1754,
"[2.8, 2.8]",1,0,7,7,12,,,,,2,0,2,0,down,0.408799053286,CHNA,f,22,59.9941268445,Set,2017_12_21_1754,
"[2.8, 2.8]",1,0,7,7,12,,,,,3,0,3,0,down,0.542105254834,CHNA,f,22,59.9941268445,Set,2017_12_21_1754,
"[2.8, 2.8]",1,0,7,7,12,,,,,4,0,4,0,left,0.558831145521,CHNA,f,22,59.9941268445,Set,2017_12_21_1754,
"[2.8, 2.8]",1,0,7,7,12,,,,,5,0,5,0,left,0.642128228676,CHNA,f,22,59.9941268445,Set,2017_12_21_1754,
"[2.8, 2.8]",1,0,7,7,12,,,,,6,0,6,0,down,0.658799250727,CHNA,f,22,59.9941268445,Set,2017_12_21_1754,
"[2.8, 2.8]",1,0,7,7,12,,,,,7,0,7,0,down,0.792165452614,CHNA,f,22,59.9941268445,Set,2017_12_21_1754,
"[2.7, 2.7]",1,0,8,8,6,,,,,0,0,0,0,down,0.442129649688,CHNA,f,22,59.9941268445,Set,2017_12_21_1754,
"[2.7, 2.7]",1,0,8,8,6,,,,,1,0,1,0,down,0.358840461471,CHNA,f,22,59.9941268445,Set,2017_12_21_1754,
"[2.7, 2.7]",1,0,8,8,6,,,,,2,0,2,0,left,0.642091123154,CHNA,f,22,59.9941268445,Set,2017_12_21_1754,
"[2.7, 2.7]",1,0,8,8,6,,,,,3,0,3,0,left,0.525473706773,CHNA,f,22,59.9941268445,Set,2017_12_21_1754,
"[2.7, 2.7]",1,0,8,8,6,,,,,4,0,4,0,left,0.642132570734,CHNA,f,22,59.9941268445,Set,2017_12_21_1754,
"[2.7, 2.7]",1,0,8,8,6,,,,,5,0,5,0,left,0.575453219819,CHNA,f,22,59.9941268445,Set,2017_12_21_1754,
"[2.7, 2.7]",1,0,8,8,6,,,,,6,0,6,0,down,0.642119939206,CHNA,f,22,59.9941268445,Set,2017_12_21_1754,
"[2.7, 2.7]",1,0,8,8,6,,,,,7,0,7,0,down,0.492122583906,CHNA,f,22,59.9941268445,Set,2017_12_21_1754,
"[2.9, 2.9]",6,0,9,9,23,,,,,0,0,0,0,right,3.12544615404,CHNA,f,22,59.9941268445,Set,2017_12_21_1754,
"[2.9, 2.9]",6,0,9,9,23,,,,,1,0,1,0,left,0.675438298727,CHNA,f,22,59.9941268445,Set,2017_12_21_1754,
"[2.9, 2.9]",6,0,9,9,23,,,,,2,0,2,0,down,0.87541793019,CHNA,f,22,59.9941268445,Set,2017_12_21_1754,
"[2.9, 2.9]",6,0,9,9,23,,,,,3,0,3,0,left,1.24212238647,CHNA,f,22,59.9941268445,Set,2017_12_21_1754,
"[2.9, 2.9]",6,0,9,9,23,,,,,4,0,4,0,left,1.5419655171,CHNA,f,22,59.9941268445,Set,2017_12_21_1754,
"[2.9, 2.9]",6,0,9,9,23,,,,,5,0,5,0,down,0.792131110327,CHNA,f,22,59.9941268445,Set,2017_12_21_1754,
"[2.9, 2.9]",6,0,9,9,23,,,,,6,0,6,0,left,0.992130478611,CHNA,f,22,59.9941268445,Set,2017_12_21_1754,
"[2.9, 2.9]",6,0,9,9,23,,,,,7,0,7,0,down,0.642120333971,CHNA,f,22,59.9941268445,Set,2017_12_21_1754,
"[2.9, 2.9]",6,0,9,9,23,,,,,8,0,8,0,down,0.62540549587,CHNA,f,22,59.9941268445,Set,2017_12_21_1754,
"[2.8, 2.8]",2,0,10,10,13,,,,,0,0,0,0,right,1.22549162805,CHNA,f,22,59.9941268445,Set,2017_12_21_1754,
"[2.8, 2.8]",2,0,10,10,13,,,,,1,0,1,0,left,0.508869395824,CHNA,f,22,59.9941268445,Set,2017_12_21_1754,
"[2.8, 2.8]",2,0,10,10,13,,,,,2,0,2,0,left,0.525465812068,CHNA,f,22,59.9941268445,Set,2017_12_21_1754,
"[2.8, 2.8]",2,0,10,10,13,,,,,3,0,3,0,right,0.842139439192,CHNA,f,22,59.9941268445,Set,2017_12_21_1754,
"[2.8, 2.8]",2,0,10,10,13,,,,,4,0,4,0,left,0.792153610382,CHNA,f,22,59.9941268445,Set,2017_12_21_1754,
"[2.8, 2.8]",2,0,10,10,13,,,,,5,0,5,0,left,0.625462338328,CHNA,f,22,59.9941268445,Set,2017_12_21_1754,
"[2.8, 2.8]",2,0,10,10,13,,,,,6,0,6,0,down,0.925458627753,CHNA,f,22,59.9941268445,Set,2017_12_21_1754,
"[2.8, 2.8]",2,0,10,10,13,,,,,7,0,7,0,left,0.492162847309,CHNA,f,22,59.9941268445,Set,2017_12_21_1754,
"[2.8, 2.8]",2,0,10,10,13,,,,,8,0,8,0,right,0.725467548938,CHNA,f,22,59.9941268445,Set,2017_12_21_1754,
"[2.8, 2.8]",2,0,10,10,13,,,,,9,0,9,0,left,0.608790132101,CHNA,f,22,59.9941268445,Set,2017_12_21_1754,
"[2.8, 2.8]",2,0,10,10,13,,,,,10,0,10,0,down,0.658788987435,CHNA,f,22,59.9941268445,Set,2017_12_21_1754,
"[2.8, 2.8]",2,0,10,10,13,,,,,11,0,11,0,down,0.592141610337,CHNA,f,22,59.9941268445,Set,2017_12_21_1754,
"[3.0, 3.0]",1,0,11,11,24,,,,,0,0,0,0,right,3.45877225045,CHNA,f,22,59.9941268445,Set,2017_12_21_1754,
"[3.0, 3.0]",1,0,11,11,24,,,,,1,0,1,0,down,0.675481325365,CHNA,f,22,59.9941268445,Set,2017_12_21_1754,
"[3.0, 3.0]",1,0,11,11,24,,,,,2,0,2,0,left,0.692202084465,CHNA,f,22,59.9941268445,Set,2017_12_21_1754,
"[3.0, 3.0]",1,0,11,11,24,,,,,3,0,3,0,down,0.625468259444,CHNA,f,22,59.9941268445,Set,2017_12_21_1754,
"[3.0, 3.0]",1,0,11,11,24,,,,,4,0,4,0,down,0.558814171818,CHNA,f,22,59.9941268445,Set,2017_12_21_1754,
"[3.0, 3.0]",6,0,12,12,29,,,,,0,0,0,0,right,0.87546529877,CHNA,f,22,59.9941268445,Set,2017_12_21_1754,
"[3.0, 3.0]",6,0,12,12,29,,,,,1,0,1,0,left,0.642130202381,CHNA,f,22,59.9941268445,Set,2017_12_21_1754,
"[3.0, 3.0]",6,0,12,12,29,,,,,2,0,2,0,left,0.55879877694,CHNA,f,22,59.9941268445,Set,2017_12_21_1754,
"[3.0, 3.0]",6,0,12,12,29,,,,,3,0,3,0,down,0.825464469846,CHNA,f,22,59.9941268445,Set,2017_12_21_1754,
"[3.0, 3.0]",6,0,12,12,29,,,,,4,0,4,0,left,0.758803671692,CHNA,f,22,59.9941268445,Set,2017_12_21_1754,
"[3.0, 3.0]",6,0,12,12,29,,,,,5,0,5,0,left,1.90877497417,CHNA,f,22,59.9941268445,Set,2017_12_21_1754,
"[3.0, 3.0]",6,0,12,12,29,,,,,6,0,6,0,left,0.725461233058,CHNA,f,22,59.9941268445,Set,2017_12_21_1754,
"[3.0, 3.0]",6,0,12,12,29,,,,,7,0,7,0,left,0.708814290236,CHNA,f,22,59.9941268445,Set,2017_12_21_1754,
"[3.0, 3.0]",6,0,12,12,29,,,,,8,0,8,0,down,0.583553663571,CHNA,f,22,59.9941268445,Set,2017_12_21_1754,
"[3.0, 3.0]",6,0,12,12,29,,,,,9,0,9,0,down,0.608832763974,CHNA,f,22,59.9941268445,Set,2017_12_21_1754,
"[3.0, 3.0]",6,0,12,12,29,,,,,10,0,10,0,left,0.625450890861,CHNA,f,22,59.9941268445,Set,2017_12_21_1754,
"[3.0, 3.0]",6,0,12,12,29,,,,,11,0,11,0,left,0.47547524632,CHNA,f,22,59.9941268445,Set,2017_12_21_1754,
"[3.0, 3.0]",6,0,12,12,29,,,,,12,0,12,0,down,2.02548633853,CHNA,f,22,59.9941268445,Set,2017_12_21_1754,
"[3.0, 3.0]",6,0,12,12,29,,,,,13,0,13,0,down,0.725469522527,CHNA,f,22,59.9941268445,Set,2017_12_21_1754,
"[2.7, 2.7]",2,0,13,13,7,,,,,0,0,0,0,down,0.950252593728,CHNA,f,22,59.9941268445,Set,2017_12_21_1754,
"[2.7, 2.7]",2,0,13,13,7,,,,,1,0,1,0,down,0.508638473344,CHNA,f,22,59.9941268445,Set,2017_12_21_1754,
"[2.6, 2.6]",6,0,14,14,5,,,,,0,0,0,0,down,1.4420933337,CHNA,f,22,59.9941268445,Set,2017_12_21_1754,
"[2.6, 2.6]",6,0,14,14,5,,,,,1,0,1,0,down,0.492126925965,CHNA,f,22,59.9941268445,Set,2017_12_21_1754,
"[2.8, 2.8]",6,0,15,15,17,,,,,0,0,0,0,right,1.33357320318,CHNA,f,22,59.9941268445,Set,2017_12_21_1754,
"[2.8, 2.8]",6,0,15,15,17,,,,,1,0,1,0,left,0.558789303177,CHNA,f,22,59.9941268445,Set,2017_12_21_1754,
"[2.8, 2.8]",6,0,15,15,17,,,,,2,0,2,0,down,0.908769053058,CHNA,f,22,59.9941268445,Set,2017_12_21_1754,
"[2.8, 2.8]",6,0,15,15,17,,,,,3,0,3,0,down,0.658803592785,CHNA,f,22,59.9941268445,Set,2017_12_21_1754,
"[2.8, 2.8]",6,0,15,15,17,,,,,4,0,4,0,left,0.65879925061,CHNA,f,22,59.9941268445,Set,2017_12_21_1754,
"[2.8, 2.8]",6,0,15,15,17,,,,,5,0,5,0,left,0.608839474618,CHNA,f,22,59.9941268445,Set,2017_12_21_1754,
"[2.8, 2.8]",6,0,15,15,17,,,,,6,0,6,0,left,0.625454838271,CHNA,f,22,59.9941268445,Set,2017_12_21_1754,
"[2.8, 2.8]",6,0,15,15,17,,,,,7,0,7,0,left,0.642123096972,CHNA,f,22,59.9941268445,Set,2017_12_21_1754,
"[2.8, 2.8]",6,0,15,15,17,,,,,8,0,8,0,down,0.625495101674,CHNA,f,22,59.9941268445,Set,2017_12_21_1754,
"[2.8, 2.8]",6,0,15,15,17,,,,,9,0,9,0,down,0.558802329586,CHNA,f,22,59.9941268445,Set,2017_12_21_1754,
"[2.6, 2.6]",5,0,16,16,4,,,,,0,0,0,0,left,0.75023704092,CHNA,f,22,59.9941268445,Set,2017_12_21_1754,
"[2.6, 2.6]",5,0,16,16,4,,,,,1,0,1,0,down,0.492124952376,CHNA,f,22,59.9941268445,Set,2017_12_21_1754,
"[2.6, 2.6]",5,0,16,16,4,,,,,2,0,2,0,down,0.542156176176,CHNA,f,22,59.9941268445,Set,2017_12_21_1754,
"[2.9, 2.9]",1,0,17,17,18,,,,,0,0,0,0,right,0.808795816498,CHNA,f,22,59.9941268445,Set,2017_12_21_1754,
"[2.9, 2.9]",1,0,17,17,18,,,,,1,0,1,0,left,1.09212266293,CHNA,f,22,59.9941268445,Set,2017_12_21_1754,
"[2.9, 2.9]",1,0,17,17,18,,,,,2,0,2,0,down,0.55878417159,CHNA,f,22,59.9941268445,Set,2017_12_21_1754,
"[2.9, 2.9]",1,0,17,17,18,,,,,3,0,3,0,down,0.65023183031,CHNA,f,22,59.9941268445,Set,2017_12_21_1754,
"[2.6, 2.6]",1,0,18,18,0,,,,,0,0,0,0,down,0.99210205744,CHNA,f,22,59.9941268445,Set,2017_12_21_1754,
"[2.6, 2.6]",1,0,18,18,0,,,,,1,0,1,0,down,0.525472522597,CHNA,f,22,59.9941268445,Set,2017_12_21_1754,
"[2.6, 2.6]",4,0,19,19,3,,,,,0,0,0,0,down,0.525451601367,CHNA,f,22,59.9941268445,Set,2017_12_21_1754,
"[2.6, 2.6]",4,0,19,19,3,,,,,1,0,1,0,down,0.525445285602,CHNA,f,22,59.9941268445,Set,2017_12_21_1754,
"[3.0, 3.0]",4,0,20,20,27,,,,,0,0,0,0,right,1.20880757959,CHNA,f,22,59.9941268445,Set,2017_12_21_1754,
"[3.0, 3.0]",4,0,20,20,27,,,,,1,0,1,0,left,0.625473785796,CHNA,f,22,59.9941268445,Set,2017_12_21_1754,
"[3.0, 3.0]",4,0,20,20,27,,,,,2,0,2,0,down,1.15876451356,CHNA,f,22,59.9941268445,Set,2017_12_21_1754,
"[3.0, 3.0]",4,0,20,20,27,,,,,3,0,3,0,down,0.4087907637,CHNA,f,22,59.9941268445,Set,2017_12_21_1754,
"[2.7, 2.7]",4,0,21,21,9,,,,,0,0,0,0,left,1.50879044796,CHNA,f,22,59.9941268445,Set,2017_12_21_1754,
"[2.7, 2.7]",4,0,21,21,9,,,,,1,0,1,0,left,0.508799526957,CHNA,f,22,59.9941268445,Set,2017_12_21_1754,
"[2.7, 2.7]",4,0,21,21,9,,,,,2,0,2,0,down,0.858788750484,CHNA,f,22,59.9941268445,Set,2017_12_21_1754,
"[2.7, 2.7]",4,0,21,21,9,,,,,3,0,3,0,down,0.37545543036,CHNA,f,22,59.9941268445,Set,2017_12_21_1754,
"[2.7, 2.7]",4,0,21,21,9,,,,,4,0,4,0,left,0.808795816381,CHNA,f,22,59.9941268445,Set,2017_12_21_1754,
"[2.7, 2.7]",4,0,21,21,9,,,,,5,0,5,0,left,0.625440627686,CHNA,f,22,59.9941268445,Set,2017_12_21_1754,
"[2.7, 2.7]",4,0,21,21,9,,,,,6,0,6,0,down,0.6587893822,CHNA,f,22,59.9941268445,Set,2017_12_21_1754,
"[2.7, 2.7]",4,0,21,21,9,,,,,7,0,7,0,left,0.642099807505,CHNA,f,22,59.9941268445,Set,2017_12_21_1754,
"[2.7, 2.7]",4,0,21,21,9,,,,,8,0,8,0,left,0.558793250588,CHNA,f,22,59.9941268445,Set,2017_12_21_1754,
"[2.7, 2.7]",4,0,21,21,9,,,,,9,0,9,0,left,0.625445364509,CHNA,f,22,59.9941268445,Set,2017_12_21_1754,
"[2.7, 2.7]",4,0,21,21,9,,,,,10,0,10,0,down,0.692146820831,CHNA,f,22,59.9941268445,Set,2017_12_21_1754,
"[2.7, 2.7]",4,0,21,21,9,,,,,11,0,11,0,left,0.72544386459,CHNA,f,22,59.9941268445,Set,2017_12_21_1754,
"[2.7, 2.7]",4,0,21,21,9,,,,,12,0,12,0,down,0.742108965293,CHNA,f,22,59.9941268445,Set,2017_12_21_1754,
"[2.7, 2.7]",4,0,21,21,9,,,,,13,0,13,0,down,0.442134781391,CHNA,f,22,59.9941268445,Set,2017_12_21_1754,
"[2.9, 2.9]",3,0,22,22,20,,,,,0,0,0,0,right,0.875448719831,CHNA,f,22,59.9941268445,Set,2017_12_21_1754,
"[2.9, 2.9]",3,0,22,22,20,,,,,1,0,1,0,down,0.858778487425,CHNA,f,22,59.9941268445,Set,2017_12_21_1754,
"[2.9, 2.9]",3,0,22,22,20,,,,,2,0,2,0,down,0.608791316277,CHNA,f,22,59.9941268445,Set,2017_12_21_1754,
"[2.9, 2.9]",5,0,23,23,22,,,,,0,0,0,0,right,0.500261317356,CHNA,f,22,59.9941268445,Set,2017_12_21_1754,
"[2.9, 2.9]",5,0,23,23,22,,,,,1,0,1,0,left,0.642105728504,CHNA,f,22,59.9941268445,Set,2017_12_21_1754,
"[2.9, 2.9]",5,0,23,23,22,,,,,2,0,2,0,left,0.675319087459,CHNA,f,22,59.9941268445,Set,2017_12_21_1754,
"[2.9, 2.9]",5,0,23,23,22,,,,,3,0,3,0,down,0.592116347048,CHNA,f,22,59.9941268445,Set,2017_12_21_1754,
"[2.9, 2.9]",5,0,23,23,22,,,,,4,0,4,0,down,0.492101662792,CHNA,f,22,59.9941268445,Set,2017_12_21_1754,
"[3.0, 3.0]",5,0,24,24,28,,,,,0,0,0,0,right,1.0086258417,CHNA,f,22,59.9941268445,Set,2017_12_21_1754,
"[3.0, 3.0]",5,0,24,24,28,,,,,1,0,1,0,left,0.650086566224,CHNA,f,22,59.9941268445,Set,2017_12_21_1754,
"[3.0, 3.0]",5,0,24,24,28,,,,,2,0,2,0,left,0.492115083849,CHNA,f,22,59.9941268445,Set,2017_12_21_1754,
"[3.0, 3.0]",5,0,24,24,28,,,,,3,0,3,0,left,0.625435496098,CHNA,f,22,59.9941268445,Set,2017_12_21_1754,
"[3.0, 3.0]",5,0,24,24,28,,,,,4,0,4,0,down,1.19210695219,CHNA,f,22,59.9941268445,Set,2017_12_21_1754,
"[3.0, 3.0]",5,0,24,24,28,,,,,5,0,5,0,left,0.608782632044,CHNA,f,22,59.9941268445,Set,2017_12_21_1754,
"[3.0, 3.0]",5,0,24,24,28,,,,,6,0,6,0,down,0.608790526865,CHNA,f,22,59.9941268445,Set,2017_12_21_1754,
"[3.0, 3.0]",5,0,24,24,28,,,,,7,0,7,0,left,0.692102215369,CHNA,f,22,59.9941268445,Set,2017_12_21_1754,
"[3.0, 3.0]",5,0,24,24,28,,,,,8,0,8,0,left,0.508765184553,CHNA,f,22,59.9941268445,Set,2017_12_21_1754,
"[3.0, 3.0]",5,0,24,24,28,,,,,9,0,9,0,down,1.00006236881,CHNA,f,22,59.9941268445,Set,2017_12_21_1754,
"[3.0, 3.0]",5,0,24,24,28,,,,,10,0,10,0,left,0.642148755025,CHNA,f,22,59.9941268445,Set,2017_12_21_1754,
"[3.0, 3.0]",5,0,24,24,28,,,,,11,0,11,0,left,0.625475364737,CHNA,f,22,59.9941268445,Set,2017_12_21_1754,
"[3.0, 3.0]",5,0,24,24,28,,,,,12,0,12,0,down,0.975441693445,CHNA,f,22,59.9941268445,Set,2017_12_21_1754,
"[3.0, 3.0]",5,0,24,24,28,,,,,13,0,13,0,down,0.608796842746,CHNA,f,22,59.9941268445,Set,2017_12_21_1754,
"[2.8, 2.8]",3,0,25,25,14,,,,,0,0,0,0,right,0.616887023323,CHNA,f,22,59.9941268445,Set,2017_12_21_1754,
"[2.8, 2.8]",3,0,25,25,14,,,,,1,0,1,0,down,0.642130991793,CHNA,f,22,59.9941268445,Set,2017_12_21_1754,
"[2.8, 2.8]",3,0,25,25,14,,,,,2,0,2,0,down,0.675466325134,CHNA,f,22,59.9941268445,Set,2017_12_21_1754,
"[2.6, 2.6]",3,0,26,26,2,,,,,0,0,0,0,down,0.316915997071,CHNA,f,22,59.9941268445,Set,2017_12_21_1754,
"[2.6, 2.6]",3,0,26,26,2,,,,,1,0,1,0,down,0.458792382153,CHNA,f,22,59.9941268445,Set,2017_12_21_1754,
"[2.8, 2.8]",4,0,27,27,15,,,,,0,0,0,0,right,1.64211678121,CHNA,f,22,59.9941268445,Set,2017_12_21_1754,
"[2.8, 2.8]",4,0,27,27,15,,,,,1,0,1,0,down,0.992134820786,CHNA,f,22,59.9941268445,Set,2017_12_21_1754,
"[2.8, 2.8]",4,0,27,27,15,,,,,2,0,2,0,left,0.608809869154,CHNA,f,22,59.9941268445,Set,2017_12_21_1754,
"[2.8, 2.8]",4,0,27,27,15,,,,,3,0,3,0,left,0.775460877805,CHNA,f,22,59.9941268445,Set,2017_12_21_1754,
"[2.8, 2.8]",4,0,27,27,15,,,,,4,0,4,0,left,1.34195470123,CHNA,f,22,59.9941268445,Set,2017_12_21_1754,
"[2.8, 2.8]",4,0,27,27,15,,,,,5,0,5,0,down,0.708770474186,CHNA,f,22,59.9941268445,Set,2017_12_21_1754,
"[2.8, 2.8]",4,0,27,27,15,,,,,6,0,6,0,down,0.542149860412,CHNA,f,22,59.9941268445,Set,2017_12_21_1754,
"[2.6, 2.6]",2,0,28,28,1,,,,,0,0,0,0,down,0.725448206649,CHNA,f,22,59.9941268445,Set,2017_12_21_1754,
"[2.6, 2.6]",2,0,28,28,1,,,,,1,0,1,0,down,0.425479548983,CHNA,f,22,59.9941268445,Set,2017_12_21_1754,
"[2.7, 2.7]",6,0,29,29,11,,,,,0,0,0,0,down,0.542154202471,CHNA,f,22,59.9941268445,Set,2017_12_21_1754,
"[2.7, 2.7]",6,0,29,29,11,,,,,1,0,1,0,left,0.775474298862,CHNA,f,22,59.9941268445,Set,2017_12_21_1754,
"[2.7, 2.7]",6,0,29,29,11,,,,,2,0,2,0,down,0.642121518147,CHNA,f,22,59.9941268445,Set,2017_12_21_1754,
"[2.7, 2.7]",6,0,29,29,11,,,,,3,0,3,0,left,0.675505009596,CHNA,f,22,59.9941268445,Set,2017_12_21_1754,
"[2.7, 2.7]",6,0,29,29,11,,,,,4,0,4,0,left,0.508801105898,CHNA,f,22,59.9941268445,Set,2017_12_21_1754,
"[2.7, 2.7]",6,0,29,29,11,,,,,5,0,5,0,left,0.475270376657,CHNA,f,22,59.9941268445,Set,2017_12_21_1754,
"[2.7, 2.7]",6,0,29,29,11,,,,,6,0,6,0,down,0.625582339009,CHNA,f,22,59.9941268445,Set,2017_12_21_1754,
"[2.7, 2.7]",6,0,29,29,11,,,,,7,0,7,0,left,0.508792421664,CHNA,f,22,59.9941268445,Set,2017_12_21_1754,
"[2.7, 2.7]",6,0,29,29,11,,,,,8,0,8,0,down,0.675463167368,CHNA,f,22,59.9941268445,Set,2017_12_21_1754,
"[2.7, 2.7]",6,0,29,29,11,,,,,9,0,9,0,right,0.975420377566,CHNA,f,22,59.9941268445,Set,2017_12_21_1754,
"[2.7, 2.7]",6,0,29,29,11,,,,,10,0,10,0,right,0.875459772535,CHNA,f,22,59.9941268445,Set,2017_12_21_1754,
"[2.7, 2.7]",6,0,29,29,11,,,,,11,0,11,0,down,0.925457838341,CHNA,f,22,59.9941268445,Set,2017_12_21_1754,
"[2.7, 2.7]",6,0,29,29,11,,,,,12,0,12,0,down,0.592098189052,CHNA,f,22,59.9941268445,Set,2017_12_21_1754,
