size,n,trials_2.thisRepN,trials_2.thisTrialN,trials_2.thisN,trials_2.thisIndex,trials.thisRepN,trials.thisTrialN,trials.thisN,trials.thisIndex,trials_3.thisRepN,trials_3.thisTrialN,trials_3.thisN,trials_3.thisIndex,answer.keys,answer.rt,participant,gender,age,frameRate,expName,date,
"[2.7, 2.7]",2,0,0,0,7,,,,,0,0,0,0,down,9.72537320621,PVA,m,18,60.0012316132,Set,2017_12_14_2037,
"[2.7, 2.7]",2,0,0,0,7,,,,,1,0,1,0,right,3.76696924744,PVA,m,18,60.0012316132,Set,2017_12_14_2037,
"[2.7, 2.7]",2,0,0,0,7,,,,,2,0,2,0,right,1.37542819338,PVA,m,18,60.0012316132,Set,2017_12_14_2037,
"[2.7, 2.7]",2,0,0,0,7,,,,,3,0,3,0,right,3.49209850481,PVA,m,18,60.0012316132,Set,2017_12_14_2037,
"[2.7, 2.7]",2,0,0,0,7,,,,,4,0,4,0,right,0.542127754976,PVA,m,18,60.0012316132,Set,2017_12_14_2037,
"[2.7, 2.7]",2,0,0,0,7,,,,,5,0,5,0,down,1.04212341286,PVA,m,18,60.0012316132,Set,2017_12_14_2037,
"[2.7, 2.7]",2,0,0,0,7,,,,,6,0,6,0,right,0.583593927018,PVA,m,18,60.0012316132,Set,2017_12_14_2037,
"[2.7, 2.7]",2,0,0,0,7,,,,,7,0,7,0,right,0.466971379035,PVA,m,18,60.0012316132,Set,2017_12_14_2037,
"[2.7, 2.7]",2,0,0,0,7,,,,,8,0,8,0,right,0.442142676126,PVA,m,18,60.0012316132,Set,2017_12_14_2037,
"[2.7, 2.7]",2,0,0,0,7,,,,,9,0,9,0,down,1.05881259282,PVA,m,18,60.0012316132,Set,2017_12_14_2037,
"[2.7, 2.7]",2,0,0,0,7,,,,,10,0,10,0,right,0.59210292589,PVA,m,18,60.0012316132,Set,2017_12_14_2037,
"[2.7, 2.7]",2,0,0,0,7,,,,,11,0,11,0,right,0.84198983309,PVA,m,18,60.0012316132,Set,2017_12_14_2037,
"[2.7, 2.7]",2,0,0,0,7,,,,,12,0,12,0,left,0.875495693792,PVA,m,18,60.0012316132,Set,2017_12_14_2037,
"[2.7, 2.7]",2,0,0,0,7,,,,,13,0,13,0,right,0.725469127836,PVA,m,18,60.0012316132,Set,2017_12_14_2037,
"[2.7, 2.7]",2,0,0,0,7,,,,,14,0,14,0,down,0.79211729439,PVA,m,18,60.0012316132,Set,2017_12_14_2037,
"[2.7, 2.7]",2,0,0,0,7,,,,,15,0,15,0,left,1.37538240364,PVA,m,18,60.0012316132,Set,2017_12_14_2037,
"[2.7, 2.7]",2,0,0,0,7,,,,,16,0,16,0,right,0.508812158601,PVA,m,18,60.0012316132,Set,2017_12_14_2037,
"[2.7, 2.7]",2,0,0,0,7,,,,,17,0,17,0,right,0.342007991101,PVA,m,18,60.0012316132,Set,2017_12_14_2037,
"[2.7, 2.7]",2,0,0,0,7,,,,,18,0,18,0,right,0.475444851385,PVA,m,18,60.0012316132,Set,2017_12_14_2037,
"[2.7, 2.7]",2,0,0,0,7,,,,,19,0,19,0,right,0.441965832943,PVA,m,18,60.0012316132,Set,2017_12_14_2037,
"[2.7, 2.7]",2,0,0,0,7,,,,,20,0,20,0,down,1.00877584259,PVA,m,18,60.0012316132,Set,2017_12_14_2037,
"[2.7, 2.7]",2,0,0,0,7,,,,,21,0,21,0,right,0.542191308006,PVA,m,18,60.0012316132,Set,2017_12_14_2037,
"[2.7, 2.7]",2,0,0,0,7,,,,,22,0,22,0,right,0.642146386672,PVA,m,18,60.0012316132,Set,2017_12_14_2037,
"[2.7, 2.7]",2,0,0,0,7,,,,,23,0,23,0,down,0.625508522819,PVA,m,18,60.0012316132,Set,2017_12_14_2037,
"[2.7, 2.7]",2,0,0,0,7,,,,,24,0,24,0,down,0.658788987406,PVA,m,18,60.0012316132,Set,2017_12_14_2037,
"[2.7, 2.7]",2,0,0,0,7,,,,,25,0,25,0,left,0.591959635552,PVA,m,18,60.0012316132,Set,2017_12_14_2037,
"[2.7, 2.7]",2,0,0,0,7,,,,,26,0,26,0,right,1.44197214878,PVA,m,18,60.0012316132,Set,2017_12_14_2037,
"[2.7, 2.7]",2,0,0,0,7,,,,,27,0,27,0,right,0.54215617622,PVA,m,18,60.0012316132,Set,2017_12_14_2037,
"[2.7, 2.7]",2,0,0,0,7,,,,,28,0,28,0,right,0.558865093131,PVA,m,18,60.0012316132,Set,2017_12_14_2037,
"[2.7, 2.7]",2,0,0,0,7,,,,,29,0,29,0,down,0.725518864987,PVA,m,18,60.0012316132,Set,2017_12_14_2037,
"[2.7, 2.7]",2,0,0,0,7,,,,,30,0,30,0,right,0.283573163731,PVA,m,18,60.0012316132,Set,2017_12_14_2037,
"[2.7, 2.7]",2,0,0,0,7,,,,,31,0,31,0,left,0.59213292606,PVA,m,18,60.0012316132,Set,2017_12_14_2037,
"[2.7, 2.7]",2,0,0,0,7,,,,,32,0,32,0,right,0.65032577829,PVA,m,18,60.0012316132,Set,2017_12_14_2037,
"[2.7, 2.7]",2,0,0,0,7,,,,,33,0,33,0,down,0.60879329007,PVA,m,18,60.0012316132,Set,2017_12_14_2037,
"[2.7, 2.7]",2,0,0,0,7,,,,,34,0,34,0,right,0.433572097943,PVA,m,18,60.0012316132,Set,2017_12_14_2037,
"[2.7, 2.7]",2,0,0,0,7,,,,,35,0,35,0,right,0.375445956655,PVA,m,18,60.0012316132,Set,2017_12_14_2037,
"[2.7, 2.7]",2,0,0,0,7,,,,,36,0,36,0,down,0.616993997581,PVA,m,18,60.0012316132,Set,2017_12_14_2037,
"[2.7, 2.7]",2,0,0,0,7,,,,,37,0,37,0,right,0.84211101805,PVA,m,18,60.0012316132,Set,2017_12_14_2037,
"[2.7, 2.7]",2,0,0,0,7,,,,,38,0,38,0,right,0.692099057444,PVA,m,18,60.0012316132,Set,2017_12_14_2037,
"[2.7, 2.7]",2,0,0,0,7,,,,,39,0,39,0,down,2.79210782064,PVA,m,18,60.0012316132,Set,2017_12_14_2037,
"[2.7, 2.7]",2,0,0,0,7,,,,,40,0,40,0,right,0.475309850561,PVA,m,18,60.0012316132,Set,2017_12_14_2037,
"[2.7, 2.7]",2,0,0,0,7,,,,,41,0,41,0,right,0.542121833889,PVA,m,18,60.0012316132,Set,2017_12_14_2037,
"[2.7, 2.7]",2,0,0,0,7,,,,,42,0,42,0,down,0.592672139857,PVA,m,18,60.0012316132,Set,2017_12_14_2037,
"[2.7, 2.7]",2,0,0,0,7,,,,,43,0,43,0,left,0.775400877421,PVA,m,18,60.0012316132,Set,2017_12_14_2037,
"[2.7, 2.7]",2,0,0,0,7,,,,,44,0,44,0,right,2.42544836455,PVA,m,18,60.0012316132,Set,2017_12_14_2037,
"[2.7, 2.7]",2,0,0,0,7,,,,,45,0,45,0,right,1.5921262155,PVA,m,18,60.0012316132,Set,2017_12_14_2037,
"[2.7, 2.7]",2,0,0,0,7,,,,,46,0,46,0,down,1.14223441352,PVA,m,18,60.0012316132,Set,2017_12_14_2037,
"[2.7, 2.7]",2,0,0,0,7,,,,,47,0,47,0,right,0.508779395255,PVA,m,18,60.0012316132,Set,2017_12_14_2037,
"[2.7, 2.7]",2,0,0,0,7,,,,,48,0,48,0,right,0.72546636466,PVA,m,18,60.0012316132,Set,2017_12_14_2037,
"[2.7, 2.7]",2,0,0,0,7,,,,,49,0,49,0,down,0.56691027341,PVA,m,18,60.0012316132,Set,2017_12_14_2037,
"[2.7, 2.7]",2,0,0,0,7,,,,,50,0,50,0,right,0.458842514054,PVA,m,18,60.0012316132,Set,2017_12_14_2037,
"[2.7, 2.7]",2,0,0,0,7,,,,,51,0,51,0,down,1.02545278563,PVA,m,18,60.0012316132,Set,2017_12_14_2037,
"[2.7, 2.7]",2,0,0,0,7,,,,,52,0,52,0,right,0.44215688674,PVA,m,18,60.0012316132,Set,2017_12_14_2037,
"[2.7, 2.7]",2,0,0,0,7,,,,,53,0,53,0,down,1.20877363204,PVA,m,18,60.0012316132,Set,2017_12_14_2037,
"[2.7, 2.7]",2,0,0,0,7,,,,,54,0,54,0,right,0.392129215528,PVA,m,18,60.0012316132,Set,2017_12_14_2037,
"[2.7, 2.7]",2,0,0,0,7,,,,,55,0,55,0,right,0.525476469993,PVA,m,18,60.0012316132,Set,2017_12_14_2037,
"[2.7, 2.7]",2,0,0,0,7,,,,,56,0,56,0,down,0.325492891148,PVA,m,18,60.0012316132,Set,2017_12_14_2037,
"[2.7, 2.7]",2,0,0,0,7,,,,,57,0,57,0,right,0.38359811125,PVA,m,18,60.0012316132,Set,2017_12_14_2037,
"[2.7, 2.7]",2,0,0,0,7,,,,,58,0,58,0,left,0.0921396366321,PVA,m,18,60.0012316132,Set,2017_12_14_2037,
"[2.7, 2.7]",2,0,0,0,7,,,,,59,0,59,0,left,0.392122110221,PVA,m,18,60.0012316132,Set,2017_12_14_2037,
"[2.7, 2.7]",2,0,0,0,7,,,,,60,0,60,0,down,0.0587995664246,PVA,m,18,60.0012316132,Set,2017_12_14_2037,
"[2.7, 2.7]",2,0,0,0,7,,,,,61,0,61,0,right,0.842117333857,PVA,m,18,60.0012316132,Set,2017_12_14_2037,
"[2.7, 2.7]",2,0,0,0,7,,,,,62,0,62,0,right,0.708802448018,PVA,m,18,60.0012316132,Set,2017_12_14_2037,
"[2.7, 2.7]",2,0,0,0,7,,,,,63,0,63,0,down,0.442162807827,PVA,m,18,60.0012316132,Set,2017_12_14_2037,
"[2.7, 2.7]",2,0,0,0,7,,,,,64,0,64,0,right,0.358840461413,PVA,m,18,60.0012316132,Set,2017_12_14_2037,
"[2.7, 2.7]",2,0,0,0,7,,,,,65,0,65,0,left,0.392116189134,PVA,m,18,60.0012316132,Set,2017_12_14_2037,
"[2.7, 2.7]",2,0,0,0,7,,,,,66,0,66,0,down,0.375524904492,PVA,m,18,60.0012316132,Set,2017_12_14_2037,
"[2.7, 2.7]",2,0,0,0,7,,,,,67,0,67,0,right,0.308791869014,PVA,m,18,60.0012316132,Set,2017_12_14_2037,
"[2.7, 2.7]",2,0,0,0,7,,,,,68,0,68,0,down,0.375502404364,PVA,m,18,60.0012316132,Set,2017_12_14_2037,
"[2.7, 2.7]",2,0,0,0,7,,,,,69,0,69,0,right,0.408782079467,PVA,m,18,60.0012316132,Set,2017_12_14_2037,
"[2.7, 2.7]",2,0,0,0,7,,,,,70,0,70,0,down,0.458809355943,PVA,m,18,60.0012316132,Set,2017_12_14_2037,
"[2.7, 2.7]",2,0,0,0,7,,,,,71,0,71,0,down,0.525324890114,PVA,m,18,60.0012316132,Set,2017_12_14_2037,
"[2.7, 2.7]",2,0,0,0,7,,,,,72,0,72,0,left,1.4588129086,PVA,m,18,60.0012316132,Set,2017_12_14_2037,
"[2.7, 2.7]",2,0,0,0,7,,,,,73,0,73,0,right,1.49213955768,PVA,m,18,60.0012316132,Set,2017_12_14_2037,
"[2.7, 2.7]",2,0,0,0,7,,,,,74,0,74,0,down,1.29213308396,PVA,m,18,60.0012316132,Set,2017_12_14_2037,
"[2.7, 2.7]",2,0,0,0,7,,,,,75,0,75,0,right,0.458799092725,PVA,m,18,60.0012316132,Set,2017_12_14_2037,
"[2.7, 2.7]",2,0,0,0,7,,,,,76,0,76,0,down,0.725490838493,PVA,m,18,60.0012316132,Set,2017_12_14_2037,
"[2.7, 2.7]",2,0,0,0,7,,,,,77,0,77,0,right,0.475456298824,PVA,m,18,60.0012316132,Set,2017_12_14_2037,
"[2.7, 2.7]",2,0,0,0,7,,,,,78,0,78,0,down,1.05880390854,PVA,m,18,60.0012316132,Set,2017_12_14_2037,
"[2.7, 2.7]",2,0,0,0,7,,,,,79,0,79,0,right,0.675463167267,PVA,m,18,60.0012316132,Set,2017_12_14_2037,
"[2.7, 2.7]",2,0,0,0,7,,,,,80,0,80,0,down,0.466930326147,PVA,m,18,60.0012316132,Set,2017_12_14_2037,
"[2.7, 2.7]",2,0,0,0,7,,,,,81,0,81,0,down,0.375504378055,PVA,m,18,60.0012316132,Set,2017_12_14_2037,
"[2.8, 2.8]",1,0,1,1,12,,,,,0,0,0,0,down,2.9254377066,PVA,m,18,60.0012316132,Set,2017_12_14_2037,
"[2.8, 2.8]",1,0,1,1,12,,,,,1,0,1,0,right,1.1254631278,PVA,m,18,60.0012316132,Set,2017_12_14_2037,
"[2.8, 2.8]",1,0,1,1,12,,,,,2,0,2,0,down,0.825475917358,PVA,m,18,60.0012316132,Set,2017_12_14_2037,
"[2.8, 2.8]",1,0,1,1,12,,,,,3,0,3,0,down,3.1254591804,PVA,m,18,60.0012316132,Set,2017_12_14_2037,
"[2.8, 2.8]",1,0,1,1,12,,,,,4,0,4,0,right,0.542089860013,PVA,m,18,60.0012316132,Set,2017_12_14_2037,
"[2.8, 2.8]",1,0,1,1,12,,,,,5,0,5,0,right,0.500236448803,PVA,m,18,60.0012316132,Set,2017_12_14_2037,
"[2.8, 2.8]",1,0,1,1,12,,,,,6,0,6,0,right,0.742137781359,PVA,m,18,60.0012316132,Set,2017_12_14_2037,
"[2.8, 2.8]",1,0,1,1,12,,,,,7,0,7,0,right,0.7421401498,PVA,m,18,60.0012316132,Set,2017_12_14_2037,
"[2.8, 2.8]",1,0,1,1,12,,,,,8,0,8,0,right,1.94193464855,PVA,m,18,60.0012316132,Set,2017_12_14_2037,
"[2.8, 2.8]",1,0,1,1,12,,,,,9,0,9,0,down,0.85881559283,PVA,m,18,60.0012316132,Set,2017_12_14_2037,
"[2.8, 2.8]",1,0,1,1,12,,,,,10,0,10,0,right,0.508809395425,PVA,m,18,60.0012316132,Set,2017_12_14_2037,
"[2.8, 2.8]",1,0,1,1,12,,,,,11,0,11,0,right,0.592136478721,PVA,m,18,60.0012316132,Set,2017_12_14_2037,
"[2.8, 2.8]",1,0,1,1,12,,,,,12,0,12,0,right,0.325479075269,PVA,m,18,60.0012316132,Set,2017_12_14_2037,
"[2.8, 2.8]",1,0,1,1,12,,,,,13,0,13,0,down,0.583559189967,PVA,m,18,60.0012316132,Set,2017_12_14_2037,
"[2.8, 2.8]",1,0,1,1,12,,,,,14,0,14,0,right,0.583593532268,PVA,m,18,60.0012316132,Set,2017_12_14_2037,
"[2.8, 2.8]",1,0,1,1,12,,,,,15,0,15,0,right,0.592165689421,PVA,m,18,60.0012316132,Set,2017_12_14_2037,
"[2.8, 2.8]",1,0,1,1,12,,,,,16,0,16,0,down,0.692131426054,PVA,m,18,60.0012316132,Set,2017_12_14_2037,
"[2.8, 2.8]",1,0,1,1,12,,,,,17,0,17,0,right,0.492128504993,PVA,m,18,60.0012316132,Set,2017_12_14_2037,
"[2.8, 2.8]",1,0,1,1,12,,,,,18,0,18,0,right,0.475493799051,PVA,m,18,60.0012316132,Set,2017_12_14_2037,
"[2.8, 2.8]",1,0,1,1,12,,,,,19,0,19,0,right,0.425459417253,PVA,m,18,60.0012316132,Set,2017_12_14_2037,
"[2.8, 2.8]",1,0,1,1,12,,,,,20,0,20,0,down,1.37552885189,PVA,m,18,60.0012316132,Set,2017_12_14_2037,
"[2.8, 2.8]",1,0,1,1,12,,,,,21,0,21,0,down,0.625455233021,PVA,m,18,60.0012316132,Set,2017_12_14_2037,
"[2.8, 2.8]",1,0,1,1,12,,,,,22,0,22,0,left,0.975456298809,PVA,m,18,60.0012316132,Set,2017_12_14_2037,
"[2.8, 2.8]",1,0,1,1,12,,,,,23,0,23,0,right,0.492124162847,PVA,m,18,60.0012316132,Set,2017_12_14_2037,
"[2.8, 2.8]",1,0,1,1,12,,,,,24,0,24,0,right,0.425492180599,PVA,m,18,60.0012316132,Set,2017_12_14_2037,
"[2.8, 2.8]",1,0,1,1,12,,,,,25,0,25,0,right,0.425483101601,PVA,m,18,60.0012316132,Set,2017_12_14_2037,
"[2.8, 2.8]",1,0,1,1,12,,,,,26,0,26,0,right,0.59210371536,PVA,m,18,60.0012316132,Set,2017_12_14_2037,
"[2.8, 2.8]",1,0,1,1,12,,,,,27,0,27,0,down,0.433684598611,PVA,m,18,60.0012316132,Set,2017_12_14_2037,
"[2.8, 2.8]",1,0,1,1,12,,,,,28,0,28,0,down,0.392141847187,PVA,m,18,60.0012316132,Set,2017_12_14_2037,
"[2.8, 2.8]",1,0,1,1,12,,,,,29,0,29,0,right,0.392170663137,PVA,m,18,60.0012316132,Set,2017_12_14_2037,
"[2.8, 2.8]",1,0,1,1,12,,,,,30,0,30,0,left,0.358821513917,PVA,m,18,60.0012316132,Set,2017_12_14_2037,
"[2.8, 2.8]",1,0,1,1,12,,,,,31,0,31,0,down,0.392191979059,PVA,m,18,60.0012316132,Set,2017_12_14_2037,
"[2.8, 2.8]",1,0,1,1,12,,,,,32,0,32,0,right,0.366923141904,PVA,m,18,60.0012316132,Set,2017_12_14_2037,
"[2.8, 2.8]",1,0,1,1,12,,,,,33,0,33,0,left,0.242131860272,PVA,m,18,60.0012316132,Set,2017_12_14_2037,
"[2.8, 2.8]",1,0,1,1,12,,,,,34,0,34,0,down,0.325479864754,PVA,m,18,60.0012316132,Set,2017_12_14_2037,
"[2.8, 2.8]",1,0,1,1,12,,,,,35,0,35,0,right,0.242137386624,PVA,m,18,60.0012316132,Set,2017_12_14_2037,
"[2.8, 2.8]",1,0,1,1,12,,,,,36,0,36,0,down,0.125441417142,PVA,m,18,60.0012316132,Set,2017_12_14_2037,
"[2.8, 2.8]",1,0,1,1,12,,,,,37,0,37,0,right,0.475414851186,PVA,m,18,60.0012316132,Set,2017_12_14_2037,
"[2.8, 2.8]",1,0,1,1,12,,,,,38,0,38,0,left,0.742132649757,PVA,m,18,60.0012316132,Set,2017_12_14_2037,
"[2.8, 2.8]",1,0,1,1,12,,,,,39,0,39,0,down,0.492132452389,PVA,m,18,60.0012316132,Set,2017_12_14_2037,
"[2.8, 2.8]",1,0,1,1,12,,,,,40,0,40,0,right,0.408796684816,PVA,m,18,60.0012316132,Set,2017_12_14_2037,
"[2.8, 2.8]",1,0,1,1,12,,,,,41,0,41,0,right,0.392113820679,PVA,m,18,60.0012316132,Set,2017_12_14_2037,
"[2.8, 2.8]",1,0,1,1,12,,,,,42,0,42,0,down,0.39213434713,PVA,m,18,60.0012316132,Set,2017_12_14_2037,
"[2.8, 2.8]",1,0,1,1,12,,,,,43,0,43,0,down,0.4087923427,PVA,m,18,60.0012316132,Set,2017_12_14_2037,
"[2.8, 2.8]",1,0,1,1,12,,,,,44,0,44,0,right,0.458824356043,PVA,m,18,60.0012316132,Set,2017_12_14_2037,
"[2.8, 2.8]",1,0,1,1,12,,,,,45,0,45,0,left,0.433569334768,PVA,m,18,60.0012316132,Set,2017_12_14_2037,
"[2.8, 2.8]",1,0,1,1,12,,,,,46,0,46,0,down,0.433564203151,PVA,m,18,60.0012316132,Set,2017_12_14_2037,
"[2.8, 2.8]",1,0,1,1,12,,,,,47,0,47,0,right,0.408799053257,PVA,m,18,60.0012316132,Set,2017_12_14_2037,
"[2.8, 2.8]",1,0,1,1,12,,,,,48,0,48,0,right,0.475434588167,PVA,m,18,60.0012316132,Set,2017_12_14_2037,
"[2.8, 2.8]",1,0,1,1,12,,,,,49,0,49,0,down,0.492204294918,PVA,m,18,60.0012316132,Set,2017_12_14_2037,
"[2.8, 2.8]",1,0,1,1,12,,,,,50,0,50,0,down,0.375451088257,PVA,m,18,60.0012316132,Set,2017_12_14_2037,
"[2.6, 2.6]",2,0,2,2,1,,,,,0,0,0,0,right,0.45878646108,PVA,m,18,60.0012316132,Set,2017_12_14_2037,
"[2.6, 2.6]",2,0,2,2,1,,,,,1,0,1,0,right,2.32541789069,PVA,m,18,60.0012316132,Set,2017_12_14_2037,
"[2.6, 2.6]",2,0,2,2,1,,,,,2,0,2,0,right,0.675473035764,PVA,m,18,60.0012316132,Set,2017_12_14_2037,
"[2.6, 2.6]",2,0,2,2,1,,,,,3,0,3,0,right,0.525553444138,PVA,m,18,60.0012316132,Set,2017_12_14_2037,
"[2.6, 2.6]",2,0,2,2,1,,,,,4,0,4,0,down,0.37552174658,PVA,m,18,60.0012316132,Set,2017_12_14_2037,
"[2.6, 2.6]",2,0,2,2,1,,,,,5,0,5,0,left,0.583592742798,PVA,m,18,60.0012316132,Set,2017_12_14_2037,
"[2.6, 2.6]",2,0,2,2,1,,,,,6,0,6,0,down,0.408786421598,PVA,m,18,60.0012316132,Set,2017_12_14_2037,
"[2.6, 2.6]",2,0,2,2,1,,,,,7,0,7,0,down,0.350254093646,PVA,m,18,60.0012316132,Set,2017_12_14_2037,
"[2.8, 2.8]",6,0,3,3,17,,,,,0,0,0,0,down,4.44216754469,PVA,m,18,60.0012316132,Set,2017_12_14_2037,
"[2.8, 2.8]",6,0,3,3,17,,,,,1,0,1,0,down,0.458825934998,PVA,m,18,60.0012316132,Set,2017_12_14_2037,
"[2.8, 2.8]",6,0,3,3,17,,,,,2,0,2,0,right,0.450254567331,PVA,m,18,60.0012316132,Set,2017_12_14_2037,
"[2.8, 2.8]",6,0,3,3,17,,,,,3,0,3,0,right,0.458637644391,PVA,m,18,60.0012316132,Set,2017_12_14_2037,
"[2.8, 2.8]",6,0,3,3,17,,,,,4,0,4,0,down,0.542131702372,PVA,m,18,60.0012316132,Set,2017_12_14_2037,
"[2.8, 2.8]",6,0,3,3,17,,,,,5,0,5,0,down,0.416905418111,PVA,m,18,60.0012316132,Set,2017_12_14_2037,
"[3.0, 3.0]",6,0,4,4,29,,,,,0,0,0,0,down,0.783588163831,PVA,m,18,60.0012316132,Set,2017_12_14_2037,
"[3.0, 3.0]",6,0,4,4,29,,,,,1,0,1,0,down,0.425460206723,PVA,m,18,60.0012316132,Set,2017_12_14_2037,
"[2.6, 2.6]",3,0,5,5,2,,,,,0,0,0,0,down,0.583576558492,PVA,m,18,60.0012316132,Set,2017_12_14_2037,
"[2.6, 2.6]",3,0,5,5,2,,,,,1,0,1,0,down,0.37542858813,PVA,m,18,60.0012316132,Set,2017_12_14_2037,
"[2.6, 2.6]",5,0,6,6,4,,,,,0,0,0,0,left,0.816925076128,PVA,m,18,60.0012316132,Set,2017_12_14_2037,
"[2.6, 2.6]",5,0,6,6,4,,,,,1,0,1,0,down,0.375498456968,PVA,m,18,60.0012316132,Set,2017_12_14_2037,
"[2.6, 2.6]",5,0,6,6,4,,,,,2,0,2,0,down,0.242142912975,PVA,m,18,60.0012316132,Set,2017_12_14_2037,
"[2.6, 2.6]",4,0,7,7,3,,,,,0,0,0,0,down,0.625494706939,PVA,m,18,60.0012316132,Set,2017_12_14_2037,
"[2.6, 2.6]",4,0,7,7,3,,,,,1,0,1,0,down,0.308834106108,PVA,m,18,60.0012316132,Set,2017_12_14_2037,
"[2.6, 2.6]",4,0,7,7,3,,,,,2,0,2,0,left,0.583621953498,PVA,m,18,60.0012316132,Set,2017_12_14_2037,
"[2.6, 2.6]",4,0,7,7,3,,,,,3,0,3,0,down,0.34214180769,PVA,m,18,60.0012316132,Set,2017_12_14_2037,
"[2.6, 2.6]",4,0,7,7,3,,,,,4,0,4,0,down,0.2254979438,PVA,m,18,60.0012316132,Set,2017_12_14_2037,
"[2.9, 2.9]",5,0,8,8,22,,,,,0,0,0,0,left,0.683556505726,PVA,m,18,60.0012316132,Set,2017_12_14_2037,
"[2.9, 2.9]",5,0,8,8,22,,,,,1,0,1,0,left,0.392141452437,PVA,m,18,60.0012316132,Set,2017_12_14_2037,
"[2.9, 2.9]",5,0,8,8,22,,,,,2,0,2,0,left,0.216906049696,PVA,m,18,60.0012316132,Set,2017_12_14_2037,
"[2.9, 2.9]",5,0,8,8,22,,,,,3,0,3,0,left,0.192120373365,PVA,m,18,60.0012316132,Set,2017_12_14_2037,
"[2.9, 2.9]",5,0,8,8,22,,,,,4,0,4,0,left,0.175456851459,PVA,m,18,60.0012316132,Set,2017_12_14_2037,
"[2.9, 2.9]",5,0,8,8,22,,,,,5,0,5,0,left,0.142162176242,PVA,m,18,60.0012316132,Set,2017_12_14_2037,
"[2.9, 2.9]",5,0,8,8,22,,,,,6,0,6,0,left,0.150142224549,PVA,m,18,60.0012316132,Set,2017_12_14_2037,
"[2.9, 2.9]",5,0,8,8,22,,,,,7,0,7,0,down,0.62545089089,PVA,m,18,60.0012316132,Set,2017_12_14_2037,
"[2.9, 2.9]",5,0,8,8,22,,,,,8,0,8,0,left,0.258798145354,PVA,m,18,60.0012316132,Set,2017_12_14_2037,
"[2.9, 2.9]",5,0,8,8,22,,,,,9,0,9,0,left,0.275455746174,PVA,m,18,60.0012316132,Set,2017_12_14_2037,
"[2.9, 2.9]",5,0,8,8,22,,,,,10,0,10,0,left,0.158892409076,PVA,m,18,60.0012316132,Set,2017_12_14_2037,
"[2.9, 2.9]",5,0,8,8,22,,,,,11,0,11,0,left,0.108803158539,PVA,m,18,60.0012316132,Set,2017_12_14_2037,
"[2.9, 2.9]",5,0,8,8,22,,,,,12,0,12,0,left,0.558783776854,PVA,m,18,60.0012316132,Set,2017_12_14_2037,
"[2.9, 2.9]",5,0,8,8,22,,,,,13,0,13,0,left,0.0754701936385,PVA,m,18,60.0012316132,Set,2017_12_14_2037,
"[2.9, 2.9]",5,0,8,8,22,,,,,14,0,14,0,left,0.0421684131288,PVA,m,18,60.0012316132,Set,2017_12_14_2037,
"[2.9, 2.9]",5,0,8,8,22,,,,,15,0,15,0,left,0.0255167333817,PVA,m,18,60.0012316132,Set,2017_12_14_2037,
"[2.9, 2.9]",5,0,8,8,22,,,,,16,0,16,0,left,0.125463127799,PVA,m,18,60.0012316132,Set,2017_12_14_2037,
"[2.9, 2.9]",5,0,8,8,22,,,,,17,0,17,0,left,0.392191979059,PVA,m,18,60.0012316132,Set,2017_12_14_2037,
"[2.9, 2.9]",5,0,8,8,22,,,,,18,0,18,0,down,0.342213255499,PVA,m,18,60.0012316132,Set,2017_12_14_2037,
"[2.9, 2.9]",5,0,8,8,22,,,,,19,0,19,0,down,0.125448127714,PVA,m,18,60.0012316132,Set,2017_12_14_2037,
"[2.7, 2.7]",6,0,9,9,11,,,,,0,0,0,0,left,0.592158584113,PVA,m,18,60.0012316132,Set,2017_12_14_2037,
"[2.7, 2.7]",6,0,9,9,11,,,,,1,0,1,0,left,0.192198531717,PVA,m,18,60.0012316132,Set,2017_12_14_2037,
"[2.7, 2.7]",6,0,9,9,11,,,,,2,0,2,0,left,0.0921404261026,PVA,m,18,60.0012316132,Set,2017_12_14_2037,
"[2.7, 2.7]",6,0,9,9,11,,,,,3,0,3,0,left,0.358810066478,PVA,m,18,60.0012316132,Set,2017_12_14_2037,
"[2.7, 2.7]",6,0,9,9,11,,,,,4,0,4,0,down,0.0587896979414,PVA,m,18,60.0012316132,Set,2017_12_14_2037,
"[2.7, 2.7]",6,0,9,9,11,,,,,5,0,5,0,down,0.342180492153,PVA,m,18,60.0012316132,Set,2017_12_14_2037,
"[2.8, 2.8]",4,0,10,10,15,,,,,0,0,0,0,left,0.775294692576,PVA,m,18,60.0012316132,Set,2017_12_14_2037,
"[2.8, 2.8]",4,0,10,10,15,,,,,1,0,1,0,down,0.342137465559,PVA,m,18,60.0012316132,Set,2017_12_14_2037,
"[2.8, 2.8]",4,0,10,10,15,,,,,2,0,2,0,left,0.442129649731,PVA,m,18,60.0012316132,Set,2017_12_14_2037,
"[2.8, 2.8]",4,0,10,10,15,,,,,3,0,3,0,left,0.400243869895,PVA,m,18,60.0012316132,Set,2017_12_14_2037,
"[2.8, 2.8]",4,0,10,10,15,,,,,4,0,4,0,down,0.375463719916,PVA,m,18,60.0012316132,Set,2017_12_14_2037,
"[2.8, 2.8]",4,0,10,10,15,,,,,5,0,5,0,left,0.34215799201,PVA,m,18,60.0012316132,Set,2017_12_14_2037,
"[2.8, 2.8]",4,0,10,10,15,,,,,6,0,6,0,left,0.408820763914,PVA,m,18,60.0012316132,Set,2017_12_14_2037,
"[2.8, 2.8]",4,0,10,10,15,,,,,7,0,7,0,left,0.192165768371,PVA,m,18,60.0012316132,Set,2017_12_14_2037,
"[2.8, 2.8]",4,0,10,10,15,,,,,8,0,8,0,left,0.0754753252404,PVA,m,18,60.0012316132,Set,2017_12_14_2037,
"[2.8, 2.8]",4,0,10,10,15,,,,,9,0,9,0,left,0.0255064701778,PVA,m,18,60.0012316132,Set,2017_12_14_2037,
"[2.8, 2.8]",4,0,10,10,15,,,,,10,0,10,0,down,0.167002326605,PVA,m,18,60.0012316132,Set,2017_12_14_2037,
"[2.8, 2.8]",4,0,10,10,15,,,,,11,0,11,0,down,0.0921246365469,PVA,m,18,60.0012316132,Set,2017_12_14_2037,
"[2.8, 2.8]",2,0,11,11,13,,,,,0,0,0,0,left,0.850223303976,PVA,m,18,60.0012316132,Set,2017_12_14_2037,
"[2.8, 2.8]",2,0,11,11,13,,,,,1,0,1,0,down,0.325504338573,PVA,m,18,60.0012316132,Set,2017_12_14_2037,
"[2.8, 2.8]",2,0,11,11,13,,,,,2,0,2,0,down,0.225457680397,PVA,m,18,60.0012316132,Set,2017_12_14_2037,
"[2.8, 2.8]",2,0,11,11,13,,,,,3,0,3,0,left,0.408805369094,PVA,m,18,60.0012316132,Set,2017_12_14_2037,
"[2.8, 2.8]",2,0,11,11,13,,,,,4,0,4,0,left,0.42545152246,PVA,m,18,60.0012316132,Set,2017_12_14_2037,
"[2.8, 2.8]",2,0,11,11,13,,,,,5,0,5,0,left,0.308803316439,PVA,m,18,60.0012316132,Set,2017_12_14_2037,
"[2.8, 2.8]",2,0,11,11,13,,,,,6,0,6,0,left,0.325482233195,PVA,m,18,60.0012316132,Set,2017_12_14_2037,
"[2.8, 2.8]",2,0,11,11,13,,,,,7,0,7,0,left,0.44197530669,PVA,m,18,60.0012316132,Set,2017_12_14_2037,
"[2.8, 2.8]",2,0,11,11,13,,,,,8,0,8,0,down,0.375448325081,PVA,m,18,60.0012316132,Set,2017_12_14_2037,
"[2.8, 2.8]",2,0,11,11,13,,,,,9,0,9,0,down,0.0922142423515,PVA,m,18,60.0012316132,Set,2017_12_14_2037,
"[3.0, 3.0]",1,0,12,12,24,,,,,0,0,0,0,down,1.00021158023,PVA,m,18,60.0012316132,Set,2017_12_14_2037,
"[3.0, 3.0]",1,0,12,12,24,,,,,1,0,1,0,down,0.392109083812,PVA,m,18,60.0012316132,Set,2017_12_14_2037,
"[2.9, 2.9]",3,0,13,13,20,,,,,0,0,0,0,left,0.400287685959,PVA,m,18,60.0012316132,Set,2017_12_14_2037,
"[2.9, 2.9]",3,0,13,13,20,,,,,1,0,1,0,left,0.208665868238,PVA,m,18,60.0012316132,Set,2017_12_14_2037,
"[2.9, 2.9]",3,0,13,13,20,,,,,2,0,2,0,left,0.0754891411198,PVA,m,18,60.0012316132,Set,2017_12_14_2037,
"[2.9, 2.9]",3,0,13,13,20,,,,,3,0,3,0,left,0.0754342723667,PVA,m,18,60.0012316132,Set,2017_12_14_2037,
"[2.9, 2.9]",3,0,13,13,20,,,,,4,0,4,0,left,0.142104544313,PVA,m,18,60.0012316132,Set,2017_12_14_2037,
"[2.9, 2.9]",3,0,13,13,20,,,,,5,0,5,0,left,0.0754536145832,PVA,m,18,60.0012316132,Set,2017_12_14_2037,
"[2.9, 2.9]",3,0,13,13,20,,,,,6,0,6,0,left,0.0586756182893,PVA,m,18,60.0012316132,Set,2017_12_14_2037,
"[2.9, 2.9]",3,0,13,13,20,,,,,7,0,7,0,left,0.0588149612449,PVA,m,18,60.0012316132,Set,2017_12_14_2037,
"[2.9, 2.9]",3,0,13,13,20,,,,,8,0,8,0,left,0.0921048995806,PVA,m,18,60.0012316132,Set,2017_12_14_2037,
"[2.9, 2.9]",3,0,13,13,20,,,,,9,0,9,0,left,0.0588295665948,PVA,m,18,60.0012316132,Set,2017_12_14_2037,
"[2.9, 2.9]",3,0,13,13,20,,,,,10,0,10,0,left,0.0668940890901,PVA,m,18,60.0012316132,Set,2017_12_14_2037,
"[2.9, 2.9]",3,0,13,13,20,,,,,11,0,11,0,left,0.0921226628416,PVA,m,18,60.0012316132,Set,2017_12_14_2037,
"[2.9, 2.9]",3,0,13,13,20,,,,,12,0,12,0,left,0.025566865268,PVA,m,18,60.0012316132,Set,2017_12_14_2037,
"[2.9, 2.9]",3,0,13,13,20,,,,,13,0,13,0,left,0.0587881189858,PVA,m,18,60.0012316132,Set,2017_12_14_2037,
"[2.9, 2.9]",3,0,13,13,20,,,,,14,0,14,0,left,0.250267830561,PVA,m,18,60.0012316132,Set,2017_12_14_2037,
"[2.9, 2.9]",3,0,13,13,20,,,,,15,0,15,0,left,0.075519930775,PVA,m,18,60.0012316132,Set,2017_12_14_2037,
"[2.9, 2.9]",3,0,13,13,20,,,,,16,0,16,0,left,0.042144334031,PVA,m,18,60.0012316132,Set,2017_12_14_2037,
"[2.9, 2.9]",3,0,13,13,20,,,,,17,0,17,0,left,0.108818948109,PVA,m,18,60.0012316132,Set,2017_12_14_2037,
"[2.9, 2.9]",3,0,13,13,20,,,,,18,0,18,0,left,0.342155228835,PVA,m,18,60.0012316132,Set,2017_12_14_2037,
"[2.9, 2.9]",3,0,13,13,20,,,,,19,0,19,0,down,0.375462930431,PVA,m,18,60.0012316132,Set,2017_12_14_2037,
"[2.9, 2.9]",3,0,13,13,20,,,,,20,0,20,0,left,0.358821119182,PVA,m,18,60.0012316132,Set,2017_12_14_2037,
"[2.9, 2.9]",3,0,13,13,20,,,,,21,0,21,0,down,0.325441575027,PVA,m,18,60.0012316132,Set,2017_12_14_2037,
"[2.9, 2.9]",3,0,13,13,20,,,,,22,0,22,0,down,0.225456496191,PVA,m,18,60.0012316132,Set,2017_12_14_2037,
"[2.9, 2.9]",3,0,13,13,20,,,,,23,0,23,0,left,0.175446588226,PVA,m,18,60.0012316132,Set,2017_12_14_2037,
"[2.9, 2.9]",3,0,13,13,20,,,,,24,0,24,0,left,0.208829290277,PVA,m,18,60.0012316132,Set,2017_12_14_2037,
"[2.9, 2.9]",3,0,13,13,20,,,,,25,0,25,0,down,0.292137426091,PVA,m,18,60.0012316132,Set,2017_12_14_2037,
"[2.9, 2.9]",3,0,13,13,20,,,,,26,0,26,0,down,0.108833553473,PVA,m,18,60.0012316132,Set,2017_12_14_2037,
"[2.8, 2.8]",3,0,14,14,14,,,,,0,0,0,0,down,0.616890181176,PVA,m,18,60.0012316132,Set,2017_12_14_2037,
"[2.8, 2.8]",3,0,14,14,14,,,,,1,0,1,0,down,0.258785513695,PVA,m,18,60.0012316132,Set,2017_12_14_2037,
"[2.9, 2.9]",1,0,15,15,18,,,,,0,0,0,0,down,0.600229817181,PVA,m,18,60.0012316132,Set,2017_12_14_2037,
"[2.9, 2.9]",1,0,15,15,18,,,,,1,0,1,0,left,0.866919194508,PVA,m,18,60.0012316132,Set,2017_12_14_2037,
"[2.9, 2.9]",1,0,15,15,18,,,,,2,0,2,0,down,0.342124044444,PVA,m,18,60.0012316132,Set,2017_12_14_2037,
"[2.9, 2.9]",1,0,15,15,18,,,,,3,0,3,0,down,0.35023435668,PVA,m,18,60.0012316132,Set,2017_12_14_2037,
"[2.7, 2.7]",4,0,16,16,9,,,,,0,0,0,0,left,0.875449904037,PVA,m,18,60.0012316132,Set,2017_12_14_2037,
"[2.7, 2.7]",4,0,16,16,9,,,,,1,0,1,0,down,0.325493285884,PVA,m,18,60.0012316132,Set,2017_12_14_2037,
"[2.7, 2.7]",4,0,16,16,9,,,,,2,0,2,0,down,0.30883844824,PVA,m,18,60.0012316132,Set,2017_12_14_2037,
"[2.6, 2.6]",1,0,17,17,0,,,,,0,0,0,0,down,0.68353874248,PVA,m,18,60.0012316132,Set,2017_12_14_2037,
"[2.6, 2.6]",1,0,17,17,0,,,,,1,0,1,0,down,0.075471772594,PVA,m,18,60.0012316132,Set,2017_12_14_2037,
"[2.8, 2.8]",5,0,18,18,16,,,,,0,0,0,0,left,0.542076438884,PVA,m,18,60.0012316132,Set,2017_12_14_2037,
"[2.8, 2.8]",5,0,18,18,16,,,,,1,0,1,0,left,0.492141926123,PVA,m,18,60.0012316132,Set,2017_12_14_2037,
"[2.8, 2.8]",5,0,18,18,16,,,,,2,0,2,0,left,0.375473193664,PVA,m,18,60.0012316132,Set,2017_12_14_2037,
"[2.8, 2.8]",5,0,18,18,16,,,,,3,0,3,0,left,0.150265383185,PVA,m,18,60.0012316132,Set,2017_12_14_2037,
"[2.8, 2.8]",5,0,18,18,16,,,,,4,0,4,0,left,0.292124399712,PVA,m,18,60.0012316132,Set,2017_12_14_2037,
"[2.8, 2.8]",5,0,18,18,16,,,,,5,0,5,0,left,0.0255123912648,PVA,m,18,60.0012316132,Set,2017_12_14_2037,
"[2.8, 2.8]",5,0,18,18,16,,,,,6,0,6,0,left,0.442124912865,PVA,m,18,60.0012316132,Set,2017_12_14_2037,
"[2.8, 2.8]",5,0,18,18,16,,,,,7,0,7,0,left,0.0754938779864,PVA,m,18,60.0012316132,Set,2017_12_14_2037,
"[2.8, 2.8]",5,0,18,18,16,,,,,8,0,8,0,left,0.775513772838,PVA,m,18,60.0012316132,Set,2017_12_14_2037,
"[2.8, 2.8]",5,0,18,18,16,,,,,9,0,9,0,left,1.0754678252,PVA,m,18,60.0012316132,Set,2017_12_14_2037,
"[2.8, 2.8]",5,0,18,18,16,,,,,10,0,10,0,down,0.558824040243,PVA,m,18,60.0012316132,Set,2017_12_14_2037,
"[2.8, 2.8]",5,0,18,18,16,,,,,11,0,11,0,down,0.675449746137,PVA,m,18,60.0012316132,Set,2017_12_14_2037,
"[2.7, 2.7]",3,0,19,19,8,,,,,0,0,0,0,down,0.958803040121,PVA,m,18,60.0012316132,Set,2017_12_14_2037,
"[2.7, 2.7]",3,0,19,19,8,,,,,1,0,1,0,down,0.392132373425,PVA,m,18,60.0012316132,Set,2017_12_14_2037,
"[2.9, 2.9]",6,0,20,20,23,,,,,0,0,0,0,down,0.675453693533,PVA,m,18,60.0012316132,Set,2017_12_14_2037,
"[2.9, 2.9]",6,0,20,20,23,,,,,1,0,1,0,down,0.225455706706,PVA,m,18,60.0012316132,Set,2017_12_14_2037,
"[3.0, 3.0]",5,0,21,21,28,,,,,0,0,0,0,left,0.550237277756,PVA,m,18,60.0012316132,Set,2017_12_14_2037,
"[3.0, 3.0]",5,0,21,21,28,,,,,1,0,1,0,left,0.52546660151,PVA,m,18,60.0012316132,Set,2017_12_14_2037,
"[3.0, 3.0]",5,0,21,21,28,,,,,2,0,2,0,down,0.342143386661,PVA,m,18,60.0012316132,Set,2017_12_14_2037,
"[3.0, 3.0]",5,0,21,21,28,,,,,3,0,3,0,left,0.20879336902,PVA,m,18,60.0012316132,Set,2017_12_14_2037,
"[3.0, 3.0]",5,0,21,21,28,,,,,4,0,4,0,left,0.208785079492,PVA,m,18,60.0012316132,Set,2017_12_14_2037,
"[3.0, 3.0]",5,0,21,21,28,,,,,5,0,5,0,left,0.0755155886436,PVA,m,18,60.0012316132,Set,2017_12_14_2037,
"[3.0, 3.0]",5,0,21,21,28,,,,,6,0,6,0,left,0.0754638778017,PVA,m,18,60.0012316132,Set,2017_12_14_2037,
"[3.0, 3.0]",5,0,21,21,28,,,,,7,0,7,0,left,0.358617039004,PVA,m,18,60.0012316132,Set,2017_12_14_2037,
"[3.0, 3.0]",5,0,21,21,28,,,,,8,0,8,0,left,0.442098860076,PVA,m,18,60.0012316132,Set,2017_12_14_2037,
"[3.0, 3.0]",5,0,21,21,28,,,,,9,0,9,0,left,0.333565703157,PVA,m,18,60.0012316132,Set,2017_12_14_2037,
"[3.0, 3.0]",5,0,21,21,28,,,,,10,0,10,0,left,0.375494114836,PVA,m,18,60.0012316132,Set,2017_12_14_2037,
"[3.0, 3.0]",5,0,21,21,28,,,,,11,0,11,0,down,0.22546675941,PVA,m,18,60.0012316132,Set,2017_12_14_2037,
"[3.0, 3.0]",5,0,21,21,28,,,,,12,0,12,0,down,0.175487246364,PVA,m,18,60.0012316132,Set,2017_12_14_2037,
"[2.6, 2.6]",6,0,22,22,5,,,,,0,0,0,0,left,0.425516259696,PVA,m,18,60.0012316132,Set,2017_12_14_2037,
"[2.6, 2.6]",6,0,22,22,5,,,,,1,0,1,0,left,0.325472759432,PVA,m,18,60.0012316132,Set,2017_12_14_2037,
"[2.6, 2.6]",6,0,22,22,5,,,,,2,0,2,0,left,0.092115162799,PVA,m,18,60.0012316132,Set,2017_12_14_2037,
"[2.6, 2.6]",6,0,22,22,5,,,,,3,0,3,0,left,0.142162570977,PVA,m,18,60.0012316132,Set,2017_12_14_2037,
"[2.6, 2.6]",6,0,22,22,5,,,,,4,0,4,0,left,0.0421644657326,PVA,m,18,60.0012316132,Set,2017_12_14_2037,
"[2.6, 2.6]",6,0,22,22,5,,,,,5,0,5,0,left,0.000255396284047,PVA,m,18,60.0012316132,Set,2017_12_14_2037,
"[2.6, 2.6]",6,0,22,22,5,,,,,6,0,6,0,left,0.0254389697511,PVA,m,18,60.0012316132,Set,2017_12_14_2037,
"[2.6, 2.6]",6,0,22,22,5,,,,,7,0,7,0,left,0.142125860235,PVA,m,18,60.0012316132,Set,2017_12_14_2037,
"[2.6, 2.6]",6,0,22,22,5,,,,,8,0,8,0,left,0.0754583514499,PVA,m,18,60.0012316132,Set,2017_12_14_2037,
"[2.6, 2.6]",6,0,22,22,5,,,,,9,0,9,0,left,0.075476904196,PVA,m,18,60.0012316132,Set,2017_12_14_2037,
"[2.6, 2.6]",6,0,22,22,5,,,,,10,0,10,0,left,0.0421336760628,PVA,m,18,60.0012316132,Set,2017_12_14_2037,
"[2.6, 2.6]",6,0,22,22,5,,,,,11,0,11,0,left,0.0587849610747,PVA,m,18,60.0012316132,Set,2017_12_14_2037,
"[2.6, 2.6]",6,0,22,22,5,,,,,12,0,12,0,left,0.0502499094,PVA,m,18,60.0012316132,Set,2017_12_14_2037,
"[2.6, 2.6]",6,0,22,22,5,,,,,13,0,13,0,left,0.0254768647283,PVA,m,18,60.0012316132,Set,2017_12_14_2037,
"[2.6, 2.6]",6,0,22,22,5,,,,,14,0,14,0,left,0.0421238075942,PVA,m,18,60.0012316132,Set,2017_12_14_2037,
"[2.6, 2.6]",6,0,22,22,5,,,,,15,0,15,0,left,0.0257219977939,PVA,m,18,60.0012316132,Set,2017_12_14_2037,
"[2.6, 2.6]",6,0,22,22,5,,,,,16,0,16,0,left,2.51671602223,PVA,m,18,60.0012316132,Set,2017_12_14_2037,
"[2.6, 2.6]",6,0,22,22,5,,,,,17,0,17,0,left,0.42546612781,PVA,m,18,60.0012316132,Set,2017_12_14_2037,
"[2.6, 2.6]",6,0,22,22,5,,,,,18,0,18,0,left,0.0588011453801,PVA,m,18,60.0012316132,Set,2017_12_14_2037,
"[2.6, 2.6]",6,0,22,22,5,,,,,19,0,19,0,left,0.0421289391961,PVA,m,18,60.0012316132,Set,2017_12_14_2037,
"[2.6, 2.6]",6,0,22,22,5,,,,,20,0,20,0,down,0.0254634435987,PVA,m,18,60.0012316132,Set,2017_12_14_2037,
"[2.6, 2.6]",6,0,22,22,5,,,,,21,0,21,0,down,0.0420807810151,PVA,m,18,60.0012316132,Set,2017_12_14_2037,
"[2.7, 2.7]",1,0,23,23,6,,,,,0,0,0,0,right,0.608932633011,PVA,m,18,60.0012316132,Set,2017_12_14_2037,
"[2.7, 2.7]",1,0,23,23,6,,,,,1,0,1,0,right,0.375026348847,PVA,m,18,60.0012316132,Set,2017_12_14_2037,
"[2.7, 2.7]",1,0,23,23,6,,,,,2,0,2,0,right,0.0589266724419,PVA,m,18,60.0012316132,Set,2017_12_14_2037,
"[2.7, 2.7]",1,0,23,23,6,,,,,3,0,3,0,down,0.300284843834,PVA,m,18,60.0012316132,Set,2017_12_14_2037,
"[2.7, 2.7]",1,0,23,23,6,,,,,4,0,4,0,down,0.0917275288812,PVA,m,18,60.0012316132,Set,2017_12_14_2037,
"[2.7, 2.7]",5,0,24,24,10,,,,,0,0,0,0,down,0.066964352678,PVA,m,18,60.0012316132,Set,2017_12_14_2037,
"[2.7, 2.7]",5,0,24,24,10,,,,,1,0,1,0,down,0.0503264888102,PVA,m,18,60.0012316132,Set,2017_12_14_2037,
"[3.0, 3.0]",3,0,25,25,26,,,,,0,0,0,0,down,0.216904865476,PVA,m,18,60.0012316132,Set,2017_12_14_2037,
"[3.0, 3.0]",3,0,25,25,26,,,,,1,0,1,0,down,0.100251922588,PVA,m,18,60.0012316132,Set,2017_12_14_2037,
"[2.9, 2.9]",4,0,26,26,21,,,,,0,0,0,0,down,0.266986221221,PVA,m,18,60.0012316132,Set,2017_12_14_2037,
"[2.9, 2.9]",4,0,26,26,21,,,,,1,0,1,0,down,0.21703828733,PVA,m,18,60.0012316132,Set,2017_12_14_2037,
"[2.9, 2.9]",2,0,27,27,19,,,,,0,0,0,0,left,0.925052441104,PVA,m,18,60.0012316132,Set,2017_12_14_2037,
"[2.9, 2.9]",2,0,27,27,19,,,,,1,0,1,0,left,0.400323607231,PVA,m,18,60.0012316132,Set,2017_12_14_2037,
"[2.9, 2.9]",2,0,27,27,19,,,,,2,0,2,0,left,0.367005642402,PVA,m,18,60.0012316132,Set,2017_12_14_2037,
"[2.9, 2.9]",2,0,27,27,19,,,,,3,0,3,0,left,0.0822182607953,PVA,m,18,60.0012316132,Set,2017_12_14_2037,
"[2.9, 2.9]",2,0,27,27,19,,,,,4,0,4,0,down,0.0837131382723,PVA,m,18,60.0012316132,Set,2017_12_14_2037,
"[2.9, 2.9]",2,0,27,27,19,,,,,5,0,5,0,down,0.000285001719021,PVA,m,18,60.0012316132,Set,2017_12_14_2037,
"[3.0, 3.0]",2,0,28,28,25,,,,,0,0,0,0,left,0.667011010868,PVA,m,18,60.0012316132,Set,2017_12_14_2037,
"[3.0, 3.0]",2,0,28,28,25,,,,,1,0,1,0,left,0.216906839167,PVA,m,18,60.0012316132,Set,2017_12_14_2037,
"[3.0, 3.0]",2,0,28,28,25,,,,,2,0,2,0,left,0.0836219535122,PVA,m,18,60.0012316132,Set,2017_12_14_2037,
"[3.0, 3.0]",2,0,28,28,25,,,,,3,0,3,0,left,0.0422086765175,PVA,m,18,60.0012316132,Set,2017_12_14_2037,
"[3.0, 3.0]",2,0,28,28,25,,,,,4,0,4,0,left,0.116927681403,PVA,m,18,60.0012316132,Set,2017_12_14_2037,
"[3.0, 3.0]",2,0,28,28,25,,,,,5,0,5,0,left,0.233679309109,PVA,m,18,60.0012316132,Set,2017_12_14_2037,
"[3.0, 3.0]",2,0,28,28,25,,,,,6,0,6,0,left,0.116907549702,PVA,m,18,60.0012316132,Set,2017_12_14_2037,
"[3.0, 3.0]",2,0,28,28,25,,,,,7,0,7,0,left,0.200319107185,PVA,m,18,60.0012316132,Set,2017_12_14_2037,
"[3.0, 3.0]",2,0,28,28,25,,,,,8,0,8,0,left,0.108816974418,PVA,m,18,60.0012316132,Set,2017_12_14_2037,
"[3.0, 3.0]",2,0,28,28,25,,,,,9,0,9,0,left,0.1003628443,PVA,m,18,60.0012316132,Set,2017_12_14_2037,
"[3.0, 3.0]",2,0,28,28,25,,,,,10,0,10,0,left,0.108908159178,PVA,m,18,60.0012316132,Set,2017_12_14_2037,
"[3.0, 3.0]",2,0,28,28,25,,,,,11,0,11,0,left,0.0421909132565,PVA,m,18,60.0012316132,Set,2017_12_14_2037,
"[3.0, 3.0]",2,0,28,28,25,,,,,12,0,12,0,left,0.0503012255067,PVA,m,18,60.0012316132,Set,2017_12_14_2037,
"[3.0, 3.0]",2,0,28,28,25,,,,,13,0,13,0,left,0.0755061149102,PVA,m,18,60.0012316132,Set,2017_12_14_2037,
"[3.0, 3.0]",2,0,28,28,25,,,,,14,0,14,0,left,0.0420934126741,PVA,m,18,60.0012316132,Set,2017_12_14_2037,
"[3.0, 3.0]",2,0,28,28,25,,,,,15,0,15,0,left,0.19217840003,PVA,m,18,60.0012316132,Set,2017_12_14_2037,
"[3.0, 3.0]",2,0,28,28,25,,,,,16,0,16,0,left,0.608878948478,PVA,m,18,60.0012316132,Set,2017_12_14_2037,
"[3.0, 3.0]",2,0,28,28,25,,,,,17,0,17,0,left,0.183685190728,PVA,m,18,60.0012316132,Set,2017_12_14_2037,
"[3.0, 3.0]",2,0,28,28,25,,,,,18,0,18,0,left,0.283749612165,PVA,m,18,60.0012316132,Set,2017_12_14_2037,
"[3.0, 3.0]",2,0,28,28,25,,,,,19,0,19,0,left,0.250274541133,PVA,m,18,60.0012316132,Set,2017_12_14_2037,
"[3.0, 3.0]",2,0,28,28,25,,,,,20,0,20,0,left,0.333564124201,PVA,m,18,60.0012316132,Set,2017_12_14_2037,
"[3.0, 3.0]",2,0,28,28,25,,,,,21,0,21,0,left,0.192104189045,PVA,m,18,60.0012316132,Set,2017_12_14_2037,
"[3.0, 3.0]",2,0,28,28,25,,,,,22,0,22,0,left,0.242116070702,PVA,m,18,60.0012316132,Set,2017_12_14_2037,
"[3.0, 3.0]",2,0,28,28,25,,,,,23,0,23,0,down,0.108815000727,PVA,m,18,60.0012316132,Set,2017_12_14_2037,
"[3.0, 3.0]",2,0,28,28,25,,,,,24,0,24,0,down,0.142111254885,PVA,m,18,60.0012316132,Set,2017_12_14_2037,
"[3.0, 3.0]",4,0,29,29,27,,,,,0,0,0,0,down,0.342248387286,PVA,m,18,60.0012316132,Set,2017_12_14_2037,
"[3.0, 3.0]",4,0,29,29,27,,,,,1,0,1,0,down,0.108830395548,PVA,m,18,60.0012316132,Set,2017_12_14_2037,
