size,n,trials_2.thisRepN,trials_2.thisTrialN,trials_2.thisN,trials_2.thisIndex,trials.thisRepN,trials.thisTrialN,trials.thisN,trials.thisIndex,trials_3.thisRepN,trials_3.thisTrialN,trials_3.thisN,trials_3.thisIndex,answer.keys,answer.rt,participant,gender,age,frameRate,expName,date,
"[3.0, 3.0]",2,0,0,0,25,,,,,0,0,0,0,down,4.45875488195,AD,m,19,59.9765143168,Set,2017_12_15_1917,
"[3.0, 3.0]",2,0,0,0,25,,,,,1,0,1,0,down,3.62541457487,AD,m,19,59.9765143168,Set,2017_12_15_1917,
"[3.0, 3.0]",5,0,1,1,28,,,,,0,0,0,0,left,4.94207635993,AD,m,19,59.9765143168,Set,2017_12_15_1917,
"[3.0, 3.0]",5,0,1,1,28,,,,,1,0,1,0,down,1.55879127688,AD,m,19,59.9765143168,Set,2017_12_15_1917,
"[3.0, 3.0]",5,0,1,1,28,,,,,2,0,2,0,down,0.692093136342,AD,m,19,59.9765143168,Set,2017_12_15_1917,
"[2.8, 2.8]",3,0,2,2,14,,,,,0,0,0,0,left,0.7921212418,AD,m,19,59.9765143168,Set,2017_12_15_1917,
"[2.8, 2.8]",3,0,2,2,14,,,,,1,0,1,0,left,0.892136715556,AD,m,19,59.9765143168,Set,2017_12_15_1917,
"[2.8, 2.8]",3,0,2,2,14,,,,,2,0,2,0,right,0.475464193616,AD,m,19,59.9765143168,Set,2017_12_15_1917,
"[2.8, 2.8]",3,0,2,2,14,,,,,3,0,3,0,down,0.642127044441,AD,m,19,59.9765143168,Set,2017_12_15_1917,
"[2.8, 2.8]",3,0,2,2,14,,,,,4,0,4,0,down,0.525472917332,AD,m,19,59.9765143168,Set,2017_12_15_1917,
"[2.9, 2.9]",3,0,3,3,20,,,,,0,0,0,0,down,0.875521746551,AD,m,19,59.9765143168,Set,2017_12_15_1917,
"[2.9, 2.9]",3,0,3,3,20,,,,,1,0,1,0,down,0.525463443599,AD,m,19,59.9765143168,Set,2017_12_15_1917,
"[2.8, 2.8]",5,0,4,4,16,,,,,0,0,0,0,down,0.808789895324,AD,m,19,59.9765143168,Set,2017_12_15_1917,
"[2.8, 2.8]",5,0,4,4,16,,,,,1,0,1,0,down,0.508805448044,AD,m,19,59.9765143168,Set,2017_12_15_1917,
"[2.8, 2.8]",5,0,4,4,16,,,,,2,0,2,0,left,0.642127439176,AD,m,19,59.9765143168,Set,2017_12_15_1917,
"[2.8, 2.8]",5,0,4,4,16,,,,,3,0,3,0,down,0.542117491772,AD,m,19,59.9765143168,Set,2017_12_15_1917,
"[2.8, 2.8]",5,0,4,4,16,,,,,4,0,4,0,down,0.442165571003,AD,m,19,59.9765143168,Set,2017_12_15_1917,
"[2.8, 2.8]",6,0,5,5,17,,,,,0,0,0,0,down,0.750230330334,AD,m,19,59.9765143168,Set,2017_12_15_1917,
"[2.8, 2.8]",6,0,5,5,17,,,,,1,0,1,0,down,0.492127715494,AD,m,19,59.9765143168,Set,2017_12_15_1917,
"[2.9, 2.9]",6,0,6,6,23,,,,,0,0,0,0,left,1.00024236989,AD,m,19,59.9765143168,Set,2017_12_15_1917,
"[2.9, 2.9]",6,0,6,6,23,,,,,1,0,1,0,down,0.5088713695,AD,m,19,59.9765143168,Set,2017_12_15_1917,
"[2.9, 2.9]",6,0,6,6,23,,,,,2,0,2,0,left,0.458779750508,AD,m,19,59.9765143168,Set,2017_12_15_1917,
"[2.9, 2.9]",6,0,6,6,23,,,,,3,0,3,0,down,0.458797513769,AD,m,19,59.9765143168,Set,2017_12_15_1917,
"[2.9, 2.9]",6,0,6,6,23,,,,,4,0,4,0,down,0.508771895198,AD,m,19,59.9765143168,Set,2017_12_15_1917,
"[2.6, 2.6]",1,0,7,7,0,,,,,0,0,0,0,down,2.22542925918,AD,m,19,59.9765143168,Set,2017_12_15_1917,
"[2.6, 2.6]",1,0,7,7,0,,,,,1,0,1,0,left,0.658689907868,AD,m,19,59.9765143168,Set,2017_12_15_1917,
"[2.6, 2.6]",1,0,7,7,0,,,,,2,0,2,0,down,0.716897365433,AD,m,19,59.9765143168,Set,2017_12_15_1917,
"[2.6, 2.6]",1,0,7,7,0,,,,,3,0,3,0,down,0.450232856674,AD,m,19,59.9765143168,Set,2017_12_15_1917,
"[3.0, 3.0]",3,0,8,8,26,,,,,0,0,0,0,left,1.30879384271,AD,m,19,59.9765143168,Set,2017_12_15_1917,
"[3.0, 3.0]",3,0,8,8,26,,,,,1,0,1,0,down,0.575412166945,AD,m,19,59.9765143168,Set,2017_12_15_1917,
"[3.0, 3.0]",3,0,8,8,26,,,,,2,0,2,0,down,0.558853645693,AD,m,19,59.9765143168,Set,2017_12_15_1917,
"[2.7, 2.7]",6,0,9,9,11,,,,,0,0,0,0,left,0.658781092614,AD,m,19,59.9765143168,Set,2017_12_15_1917,
"[2.7, 2.7]",6,0,9,9,11,,,,,1,0,1,0,down,0.942103596928,AD,m,19,59.9765143168,Set,2017_12_15_1917,
"[2.7, 2.7]",6,0,9,9,11,,,,,2,0,2,0,down,0.508777026815,AD,m,19,59.9765143168,Set,2017_12_15_1917,
"[2.9, 2.9]",5,0,10,10,22,,,,,0,0,0,0,left,0.875434903952,AD,m,19,59.9765143168,Set,2017_12_15_1917,
"[2.9, 2.9]",5,0,10,10,22,,,,,1,0,1,0,left,0.483585953276,AD,m,19,59.9765143168,Set,2017_12_15_1917,
"[2.9, 2.9]",5,0,10,10,22,,,,,2,0,2,0,down,0.625488391117,AD,m,19,59.9765143168,Set,2017_12_15_1917,
"[2.9, 2.9]",5,0,10,10,22,,,,,3,0,3,0,left,0.55879877694,AD,m,19,59.9765143168,Set,2017_12_15_1917,
"[2.9, 2.9]",5,0,10,10,22,,,,,4,0,4,0,down,0.642176386842,AD,m,19,59.9765143168,Set,2017_12_15_1917,
"[2.9, 2.9]",5,0,10,10,22,,,,,5,0,5,0,left,0.725446232973,AD,m,19,59.9765143168,Set,2017_12_15_1917,
"[2.9, 2.9]",5,0,10,10,22,,,,,6,0,6,0,right,0.492142320873,AD,m,19,59.9765143168,Set,2017_12_15_1917,
"[2.9, 2.9]",5,0,10,10,22,,,,,7,0,7,0,down,0.575470983109,AD,m,19,59.9765143168,Set,2017_12_15_1917,
"[2.9, 2.9]",5,0,10,10,22,,,,,8,0,8,0,down,0.392111057532,AD,m,19,59.9765143168,Set,2017_12_15_1917,
"[3.0, 3.0]",4,0,11,11,27,,,,,0,0,0,0,right,2.75028480435,AD,m,19,59.9765143168,Set,2017_12_15_1917,
"[3.0, 3.0]",4,0,11,11,27,,,,,1,0,1,0,left,0.808785158413,AD,m,19,59.9765143168,Set,2017_12_15_1917,
"[3.0, 3.0]",4,0,11,11,27,,,,,2,0,2,0,left,1.05879601379,AD,m,19,59.9765143168,Set,2017_12_15_1917,
"[3.0, 3.0]",4,0,11,11,27,,,,,3,0,3,0,left,0.542100912717,AD,m,19,59.9765143168,Set,2017_12_15_1917,
"[3.0, 3.0]",4,0,11,11,27,,,,,4,0,4,0,left,0.542159334145,AD,m,19,59.9765143168,Set,2017_12_15_1917,
"[3.0, 3.0]",4,0,11,11,27,,,,,5,0,5,0,down,0.825539470359,AD,m,19,59.9765143168,Set,2017_12_15_1917,
"[3.0, 3.0]",4,0,11,11,27,,,,,6,0,6,0,left,1.3920897416,AD,m,19,59.9765143168,Set,2017_12_15_1917,
"[3.0, 3.0]",4,0,11,11,27,,,,,7,0,7,0,down,0.742120018083,AD,m,19,59.9765143168,Set,2017_12_15_1917,
"[3.0, 3.0]",4,0,11,11,27,,,,,8,0,8,0,down,1.57545400932,AD,m,19,59.9765143168,Set,2017_12_15_1917,
"[3.0, 3.0]",4,0,11,11,27,,,,,9,0,9,0,left,0.842122070724,AD,m,19,59.9765143168,Set,2017_12_15_1917,
"[3.0, 3.0]",4,0,11,11,27,,,,,10,0,10,0,down,0.542116307566,AD,m,19,59.9765143168,Set,2017_12_15_1917,
"[3.0, 3.0]",4,0,11,11,27,,,,,11,0,11,0,down,0.408789579495,AD,m,19,59.9765143168,Set,2017_12_15_1917,
"[2.9, 2.9]",2,0,12,12,19,,,,,0,0,0,0,left,0.608803553274,AD,m,19,59.9765143168,Set,2017_12_15_1917,
"[2.9, 2.9]",2,0,12,12,19,,,,,1,0,1,0,left,0.458804224327,AD,m,19,59.9765143168,Set,2017_12_15_1917,
"[2.9, 2.9]",2,0,12,12,19,,,,,2,0,2,0,down,0.49213363661,AD,m,19,59.9765143168,Set,2017_12_15_1917,
"[2.9, 2.9]",2,0,12,12,19,,,,,3,0,3,0,left,0.558779829473,AD,m,19,59.9765143168,Set,2017_12_15_1917,
"[2.9, 2.9]",2,0,12,12,19,,,,,4,0,4,0,left,0.558786145295,AD,m,19,59.9765143168,Set,2017_12_15_1917,
"[2.9, 2.9]",2,0,12,12,19,,,,,5,0,5,0,down,1.89210829433,AD,m,19,59.9765143168,Set,2017_12_15_1917,
"[2.9, 2.9]",2,0,12,12,19,,,,,6,0,6,0,left,0.592111215403,AD,m,19,59.9765143168,Set,2017_12_15_1917,
"[2.9, 2.9]",2,0,12,12,19,,,,,7,0,7,0,down,1.55878061891,AD,m,19,59.9765143168,Set,2017_12_15_1917,
"[2.9, 2.9]",2,0,12,12,19,,,,,8,0,8,0,left,0.608826448151,AD,m,19,59.9765143168,Set,2017_12_15_1917,
"[2.9, 2.9]",2,0,12,12,19,,,,,9,0,9,0,down,0.558795224293,AD,m,19,59.9765143168,Set,2017_12_15_1917,
"[2.9, 2.9]",2,0,12,12,19,,,,,10,0,10,0,down,0.475438535534,AD,m,19,59.9765143168,Set,2017_12_15_1917,
"[2.6, 2.6]",3,0,13,13,2,,,,,0,0,0,0,left,0.508733605471,AD,m,19,59.9765143168,Set,2017_12_15_1917,
"[2.6, 2.6]",3,0,13,13,2,,,,,1,0,1,0,down,0.57544256188,AD,m,19,59.9765143168,Set,2017_12_15_1917,
"[2.6, 2.6]",3,0,13,13,2,,,,,2,0,2,0,left,0.458798303269,AD,m,19,59.9765143168,Set,2017_12_15_1917,
"[2.6, 2.6]",3,0,13,13,2,,,,,3,0,3,0,right,0.725444259268,AD,m,19,59.9765143168,Set,2017_12_15_1917,
"[2.6, 2.6]",3,0,13,13,2,,,,,4,0,4,0,right,0.442129649717,AD,m,19,59.9765143168,Set,2017_12_15_1917,
"[2.6, 2.6]",3,0,13,13,2,,,,,5,0,5,0,right,0.458782908448,AD,m,19,59.9765143168,Set,2017_12_15_1917,
"[2.6, 2.6]",3,0,13,13,2,,,,,6,0,6,0,right,0.325452627731,AD,m,19,59.9765143168,Set,2017_12_15_1917,
"[2.6, 2.6]",3,0,13,13,2,,,,,7,0,7,0,left,0.625441417127,AD,m,19,59.9765143168,Set,2017_12_15_1917,
"[2.6, 2.6]",3,0,13,13,2,,,,,8,0,8,0,down,0.742111333821,AD,m,19,59.9765143168,Set,2017_12_15_1917,
"[2.6, 2.6]",3,0,13,13,2,,,,,9,0,9,0,right,0.542152228823,AD,m,19,59.9765143168,Set,2017_12_15_1917,
"[2.6, 2.6]",3,0,13,13,2,,,,,10,0,10,0,down,0.425441259256,AD,m,19,59.9765143168,Set,2017_12_15_1917,
"[2.6, 2.6]",3,0,13,13,2,,,,,11,0,11,0,down,0.67555158888,AD,m,19,59.9765143168,Set,2017_12_15_1917,
"[2.7, 2.7]",2,0,14,14,7,,,,,0,0,0,0,left,0.666902852303,AD,m,19,59.9765143168,Set,2017_12_15_1917,
"[2.7, 2.7]",2,0,14,14,7,,,,,1,0,1,0,left,0.492203505448,AD,m,19,59.9765143168,Set,2017_12_15_1917,
"[2.7, 2.7]",2,0,14,14,7,,,,,2,0,2,0,down,0.47545985147,AD,m,19,59.9765143168,Set,2017_12_15_1917,
"[2.7, 2.7]",2,0,14,14,7,,,,,3,0,3,0,down,0.392120531265,AD,m,19,59.9765143168,Set,2017_12_15_1917,
"[3.0, 3.0]",6,0,15,15,29,,,,,0,0,0,0,left,0.500260527886,AD,m,19,59.9765143168,Set,2017_12_15_1917,
"[3.0, 3.0]",6,0,15,15,29,,,,,1,0,1,0,left,0.375430167071,AD,m,19,59.9765143168,Set,2017_12_15_1917,
"[3.0, 3.0]",6,0,15,15,29,,,,,2,0,2,0,down,0.425439680315,AD,m,19,59.9765143168,Set,2017_12_15_1917,
"[3.0, 3.0]",6,0,15,15,29,,,,,3,0,3,0,down,0.158808724344,AD,m,19,59.9765143168,Set,2017_12_15_1917,
"[2.8, 2.8]",2,0,16,16,13,,,,,0,0,0,0,down,1.00880189537,AD,m,19,59.9765143168,Set,2017_12_15_1917,
"[2.8, 2.8]",2,0,16,16,13,,,,,1,0,1,0,down,0.442090175813,AD,m,19,59.9765143168,Set,2017_12_15_1917,
"[2.9, 2.9]",4,0,17,17,21,,,,,0,0,0,0,down,0.442117412807,AD,m,19,59.9765143168,Set,2017_12_15_1917,
"[2.9, 2.9]",4,0,17,17,21,,,,,1,0,1,0,left,0.625453654065,AD,m,19,59.9765143168,Set,2017_12_15_1917,
"[2.9, 2.9]",4,0,17,17,21,,,,,2,0,2,0,down,0.37530858739,AD,m,19,59.9765143168,Set,2017_12_15_1917,
"[2.9, 2.9]",4,0,17,17,21,,,,,3,0,3,0,down,0.275477456831,AD,m,19,59.9765143168,Set,2017_12_15_1917,
"[2.6, 2.6]",6,0,18,18,5,,,,,0,0,0,0,down,0.858874408994,AD,m,19,59.9765143168,Set,2017_12_15_1917,
"[2.6, 2.6]",6,0,18,18,5,,,,,1,0,1,0,down,0.408783658408,AD,m,19,59.9765143168,Set,2017_12_15_1917,
"[2.7, 2.7]",1,0,19,19,6,,,,,0,0,0,0,down,0.54217117629,AD,m,19,59.9765143168,Set,2017_12_15_1917,
"[2.7, 2.7]",1,0,19,19,6,,,,,1,0,1,0,down,0.375416745926,AD,m,19,59.9765143168,Set,2017_12_15_1917,
"[2.7, 2.7]",1,0,19,19,6,,,,,2,0,2,0,left,0.542133676063,AD,m,19,59.9765143168,Set,2017_12_15_1917,
"[2.7, 2.7]",1,0,19,19,6,,,,,3,0,3,0,right,0.442120965483,AD,m,19,59.9765143168,Set,2017_12_15_1917,
"[2.7, 2.7]",1,0,19,19,6,,,,,4,0,4,0,down,0.375432930246,AD,m,19,59.9765143168,Set,2017_12_15_1917,
"[2.7, 2.7]",1,0,19,19,6,,,,,5,0,5,0,down,0.292137820827,AD,m,19,59.9765143168,Set,2017_12_15_1917,
"[2.7, 2.7]",4,0,20,20,9,,,,,0,0,0,0,down,0.416914102389,AD,m,19,59.9765143168,Set,2017_12_15_1917,
"[2.7, 2.7]",4,0,20,20,9,,,,,1,0,1,0,down,0.358791513747,AD,m,19,59.9765143168,Set,2017_12_15_1917,
"[2.7, 2.7]",5,0,21,21,10,,,,,0,0,0,0,left,1.10881105333,AD,m,19,59.9765143168,Set,2017_12_15_1917,
"[2.7, 2.7]",5,0,21,21,10,,,,,1,0,1,0,left,0.508783342637,AD,m,19,59.9765143168,Set,2017_12_15_1917,
"[2.7, 2.7]",5,0,21,21,10,,,,,2,0,2,0,down,0.408632868028,AD,m,19,59.9765143168,Set,2017_12_15_1917,
"[2.7, 2.7]",5,0,21,21,10,,,,,3,0,3,0,down,0.458783303184,AD,m,19,59.9765143168,Set,2017_12_15_1917,
"[2.8, 2.8]",1,0,22,22,12,,,,,0,0,0,0,right,1.85875914511,AD,m,19,59.9765143168,Set,2017_12_15_1917,
"[2.8, 2.8]",1,0,22,22,12,,,,,1,0,1,0,left,0.442118991778,AD,m,19,59.9765143168,Set,2017_12_15_1917,
"[2.8, 2.8]",1,0,22,22,12,,,,,2,0,2,0,left,0.442166360473,AD,m,19,59.9765143168,Set,2017_12_15_1917,
"[2.8, 2.8]",1,0,22,22,12,,,,,3,0,3,0,left,0.625444180303,AD,m,19,59.9765143168,Set,2017_12_15_1917,
"[2.8, 2.8]",1,0,22,22,12,,,,,4,0,4,0,down,0.442122149689,AD,m,19,59.9765143168,Set,2017_12_15_1917,
"[2.8, 2.8]",1,0,22,22,12,,,,,5,0,5,0,down,0.308780421561,AD,m,19,59.9765143168,Set,2017_12_15_1917,
"[2.6, 2.6]",4,0,23,23,3,,,,,0,0,0,0,left,0.566875931079,AD,m,19,59.9765143168,Set,2017_12_15_1917,
"[2.6, 2.6]",4,0,23,23,3,,,,,1,0,1,0,down,0.625443390862,AD,m,19,59.9765143168,Set,2017_12_15_1917,
"[2.6, 2.6]",4,0,23,23,3,,,,,2,0,2,0,right,0.458798697975,AD,m,19,59.9765143168,Set,2017_12_15_1917,
"[2.6, 2.6]",4,0,23,23,3,,,,,3,0,3,0,down,0.175443430315,AD,m,19,59.9765143168,Set,2017_12_15_1917,
"[2.6, 2.6]",4,0,23,23,3,,,,,4,0,4,0,down,0.142084807361,AD,m,19,59.9765143168,Set,2017_12_15_1917,
"[2.6, 2.6]",2,0,24,24,1,,,,,0,0,0,0,down,0.658671355108,AD,m,19,59.9765143168,Set,2017_12_15_1917,
"[2.6, 2.6]",2,0,24,24,1,,,,,1,0,1,0,down,0.308790684794,AD,m,19,59.9765143168,Set,2017_12_15_1917,
"[2.7, 2.7]",3,0,25,25,8,,,,,0,0,0,0,left,0.442096886371,AD,m,19,59.9765143168,Set,2017_12_15_1917,
"[2.7, 2.7]",3,0,25,25,8,,,,,1,0,1,0,right,0.408771026763,AD,m,19,59.9765143168,Set,2017_12_15_1917,
"[2.7, 2.7]",3,0,25,25,8,,,,,2,0,2,0,down,0.208787053183,AD,m,19,59.9765143168,Set,2017_12_15_1917,
"[2.7, 2.7]",3,0,25,25,8,,,,,3,0,3,0,down,0.192104189075,AD,m,19,59.9765143168,Set,2017_12_15_1917,
"[2.7, 2.7]",3,0,25,25,8,,,,,4,0,4,0,left,0.70877678995,AD,m,19,59.9765143168,Set,2017_12_15_1917,
"[2.7, 2.7]",3,0,25,25,8,,,,,5,0,5,0,right,0.892113031208,AD,m,19,59.9765143168,Set,2017_12_15_1917,
"[2.7, 2.7]",3,0,25,25,8,,,,,6,0,6,0,down,0.375464904122,AD,m,19,59.9765143168,Set,2017_12_15_1917,
"[2.7, 2.7]",3,0,25,25,8,,,,,7,0,7,0,down,0.325433285499,AD,m,19,59.9765143168,Set,2017_12_15_1917,
"[2.8, 2.8]",4,0,26,26,15,,,,,0,0,0,0,down,3.63353672929,AD,m,19,59.9765143168,Set,2017_12_15_1917,
"[2.8, 2.8]",4,0,26,26,15,,,,,1,0,1,0,down,1.30881555335,AD,m,19,59.9765143168,Set,2017_12_15_1917,
"[2.8, 2.8]",4,0,26,26,15,,,,,2,0,2,0,left,0.408774974174,AD,m,19,59.9765143168,Set,2017_12_15_1917,
"[2.8, 2.8]",4,0,26,26,15,,,,,3,0,3,0,right,0.341989438341,AD,m,19,59.9765143168,Set,2017_12_15_1917,
"[2.8, 2.8]",4,0,26,26,15,,,,,4,0,4,0,down,0.108800790127,AD,m,19,59.9765143168,Set,2017_12_15_1917,
"[2.8, 2.8]",4,0,26,26,15,,,,,5,0,5,0,down,0.592024767509,AD,m,19,59.9765143168,Set,2017_12_15_1917,
"[2.8, 2.8]",4,0,26,26,15,,,,,6,0,6,0,left,0.783577111142,AD,m,19,59.9765143168,Set,2017_12_15_1917,
"[2.8, 2.8]",4,0,26,26,15,,,,,7,0,7,0,down,0.450231277733,AD,m,19,59.9765143168,Set,2017_12_15_1917,
"[2.8, 2.8]",4,0,26,26,15,,,,,8,0,8,0,left,0.61688899697,AD,m,19,59.9765143168,Set,2017_12_15_1917,
"[2.8, 2.8]",4,0,26,26,15,,,,,9,0,9,0,right,0.483640032558,AD,m,19,59.9765143168,Set,2017_12_15_1917,
"[2.8, 2.8]",4,0,26,26,15,,,,,10,0,10,0,down,0.442115439131,AD,m,19,59.9765143168,Set,2017_12_15_1917,
"[2.8, 2.8]",4,0,26,26,15,,,,,11,0,11,0,down,0.35875480299,AD,m,19,59.9765143168,Set,2017_12_15_1917,
"[3.0, 3.0]",1,0,27,27,24,,,,,0,0,0,0,down,1.65877122412,AD,m,19,59.9765143168,Set,2017_12_15_1917,
"[3.0, 3.0]",1,0,27,27,24,,,,,1,0,1,0,down,0.533556387323,AD,m,19,59.9765143168,Set,2017_12_15_1917,
"[3.0, 3.0]",1,0,27,27,24,,,,,2,0,2,0,left,2.29208453101,AD,m,19,59.9765143168,Set,2017_12_15_1917,
"[3.0, 3.0]",1,0,27,27,24,,,,,3,0,3,0,down,0.692101031134,AD,m,19,59.9765143168,Set,2017_12_15_1917,
"[3.0, 3.0]",1,0,27,27,24,,,,,4,0,4,0,down,0.275473904185,AD,m,19,59.9765143168,Set,2017_12_15_1917,
"[2.6, 2.6]",5,0,28,28,4,,,,,0,0,0,0,left,1.45020680389,AD,m,19,59.9765143168,Set,2017_12_15_1917,
"[2.6, 2.6]",5,0,28,28,4,,,,,1,0,1,0,right,1.2754991675,AD,m,19,59.9765143168,Set,2017_12_15_1917,
"[2.6, 2.6]",5,0,28,28,4,,,,,2,0,2,0,left,0.392124478647,AD,m,19,59.9765143168,Set,2017_12_15_1917,
"[2.6, 2.6]",5,0,28,28,4,,,,,3,0,3,0,left,1.52547568051,AD,m,19,59.9765143168,Set,2017_12_15_1917,
"[2.6, 2.6]",5,0,28,28,4,,,,,4,0,4,0,down,0.642121518089,AD,m,19,59.9765143168,Set,2017_12_15_1917,
"[2.6, 2.6]",5,0,28,28,4,,,,,5,0,5,0,down,1.07545400932,AD,m,19,59.9765143168,Set,2017_12_15_1917,
"[2.9, 2.9]",1,0,29,29,18,,,,,0,0,0,0,down,1.59211555755,AD,m,19,59.9765143168,Set,2017_12_15_1917,
"[2.9, 2.9]",1,0,29,29,18,,,,,1,0,1,0,left,0.458780145244,AD,m,19,59.9765143168,Set,2017_12_15_1917,
"[2.9, 2.9]",1,0,29,29,18,,,,,2,0,2,0,left,0.725457680383,AD,m,19,59.9765143168,Set,2017_12_15_1917,
"[2.9, 2.9]",1,0,29,29,18,,,,,3,0,3,0,right,0.742112912791,AD,m,19,59.9765143168,Set,2017_12_15_1917,
"[2.9, 2.9]",1,0,29,29,18,,,,,4,0,4,0,down,0.492110741732,AD,m,19,59.9765143168,Set,2017_12_15_1917,
"[2.9, 2.9]",1,0,29,29,18,,,,,5,0,5,0,down,0.242028043838,AD,m,19,59.9765143168,Set,2017_12_15_1917,
