size,n,trials_2.thisRepN,trials_2.thisTrialN,trials_2.thisN,trials_2.thisIndex,trials.thisRepN,trials.thisTrialN,trials.thisN,trials.thisIndex,trials_3.thisRepN,trials_3.thisTrialN,trials_3.thisN,trials_3.thisIndex,answer.keys,answer.rt,participant,gender,age,frameRate,expName,date,
"[2.7, 2.7]",5,0,0,0,10,,,,,0,0,0,0,down,1.85877296096,AES,f,23,60.0008052742,Set,2017_12_21_1807,
"[2.7, 2.7]",5,0,0,0,10,,,,,1,0,1,0,down,1.30023786984,AES,f,23,60.0008052742,Set,2017_12_21_1807,
"[3.0, 3.0]",1,0,1,1,24,,,,,0,0,0,0,down,1.02546739101,AES,f,23,60.0008052742,Set,2017_12_21_1807,
"[3.0, 3.0]",1,0,1,1,24,,,,,1,0,1,0,down,1.27541232493,AES,f,23,60.0008052742,Set,2017_12_21_1807,
"[2.7, 2.7]",1,0,2,2,6,,,,,0,0,0,0,right,2.37544753565,AES,f,23,60.0008052742,Set,2017_12_21_1807,
"[2.7, 2.7]",1,0,2,2,6,,,,,1,0,1,0,down,1.14211678121,AES,f,23,60.0008052742,Set,2017_12_21_1807,
"[2.7, 2.7]",1,0,2,2,6,,,,,2,0,2,0,down,0.758781566285,AES,f,23,60.0008052742,Set,2017_12_21_1807,
"[2.9, 2.9]",6,0,3,3,23,,,,,0,0,0,0,down,0.983567005722,AES,f,23,60.0008052742,Set,2017_12_21_1807,
"[2.9, 2.9]",6,0,3,3,23,,,,,1,0,1,0,down,0.658782671671,AES,f,23,60.0008052742,Set,2017_12_21_1807,
"[2.8, 2.8]",5,0,4,4,16,,,,,0,0,0,0,down,0.808797000558,AES,f,23,60.0008052742,Set,2017_12_21_1807,
"[2.8, 2.8]",5,0,4,4,16,,,,,1,0,1,0,down,0.775466009392,AES,f,23,60.0008052742,Set,2017_12_21_1807,
"[2.9, 2.9]",3,0,5,5,20,,,,,0,0,0,0,down,1.2086362628,AES,f,23,60.0008052742,Set,2017_12_21_1807,
"[2.9, 2.9]",3,0,5,5,20,,,,,1,0,1,0,down,2.07542440388,AES,f,23,60.0008052742,Set,2017_12_21_1807,
"[2.6, 2.6]",1,0,6,6,0,,,,,0,0,0,0,right,1.10022192239,AES,f,23,60.0008052742,Set,2017_12_21_1807,
"[2.6, 2.6]",1,0,6,6,0,,,,,1,0,1,0,right,0.825455390965,AES,f,23,60.0008052742,Set,2017_12_21_1807,
"[2.6, 2.6]",1,0,6,6,0,,,,,2,0,2,0,down,1.02545831201,AES,f,23,60.0008052742,Set,2017_12_21_1807,
"[2.6, 2.6]",1,0,6,6,0,,,,,3,0,3,0,down,0.54211749183,AES,f,23,60.0008052742,Set,2017_12_21_1807,
"[3.0, 3.0]",6,0,7,7,29,,,,,0,0,0,0,left,2.15878267155,AES,f,23,60.0008052742,Set,2017_12_21_1807,
"[3.0, 3.0]",6,0,7,7,29,,,,,1,0,1,0,down,0.675441061961,AES,f,23,60.0008052742,Set,2017_12_21_1807,
"[3.0, 3.0]",6,0,7,7,29,,,,,2,0,2,0,left,0.775448640808,AES,f,23,60.0008052742,Set,2017_12_21_1807,
"[3.0, 3.0]",6,0,7,7,29,,,,,3,0,3,0,down,0.742127123405,AES,f,23,60.0008052742,Set,2017_12_21_1807,
"[3.0, 3.0]",6,0,7,7,29,,,,,4,0,4,0,down,0.592065030942,AES,f,23,60.0008052742,Set,2017_12_21_1807,
"[2.7, 2.7]",2,0,8,8,7,,,,,0,0,0,0,left,0.942132018157,AES,f,23,60.0008052742,Set,2017_12_21_1807,
"[2.7, 2.7]",2,0,8,8,7,,,,,1,0,1,0,down,0.875445956597,AES,f,23,60.0008052742,Set,2017_12_21_1807,
"[2.7, 2.7]",2,0,8,8,7,,,,,2,0,2,0,left,0.925459417282,AES,f,23,60.0008052742,Set,2017_12_21_1807,
"[2.7, 2.7]",2,0,8,8,7,,,,,3,0,3,0,left,0.792121636448,AES,f,23,60.0008052742,Set,2017_12_21_1807,
"[2.7, 2.7]",2,0,8,8,7,,,,,4,0,4,0,down,0.89195158286,AES,f,23,60.0008052742,Set,2017_12_21_1807,
"[2.7, 2.7]",2,0,8,8,7,,,,,5,0,5,0,left,0.60861407849,AES,f,23,60.0008052742,Set,2017_12_21_1807,
"[2.7, 2.7]",2,0,8,8,7,,,,,6,0,6,0,down,0.67546000937,AES,f,23,60.0008052742,Set,2017_12_21_1807,
"[2.7, 2.7]",2,0,8,8,7,,,,,7,0,7,0,left,0.842121676076,AES,f,23,60.0008052742,Set,2017_12_21_1807,
"[2.7, 2.7]",2,0,8,8,7,,,,,8,0,8,0,down,0.825430917088,AES,f,23,60.0008052742,Set,2017_12_21_1807,
"[2.7, 2.7]",2,0,8,8,7,,,,,9,0,9,0,left,0.95879751374,AES,f,23,60.0008052742,Set,2017_12_21_1807,
"[2.7, 2.7]",2,0,8,8,7,,,,,10,0,10,0,down,1.07544216712,AES,f,23,60.0008052742,Set,2017_12_21_1807,
"[2.7, 2.7]",2,0,8,8,7,,,,,11,0,11,0,left,0.975470904144,AES,f,23,60.0008052742,Set,2017_12_21_1807,
"[2.7, 2.7]",2,0,8,8,7,,,,,12,0,12,0,down,0.658792540082,AES,f,23,60.0008052742,Set,2017_12_21_1807,
"[2.7, 2.7]",2,0,8,8,7,,,,,13,0,13,0,down,0.442101623281,AES,f,23,60.0008052742,Set,2017_12_21_1807,
"[2.7, 2.7]",2,0,8,8,7,,,,,14,0,14,0,left,0.658784250496,AES,f,23,60.0008052742,Set,2017_12_21_1807,
"[2.7, 2.7]",2,0,8,8,7,,,,,15,0,15,0,down,0.458797908504,AES,f,23,60.0008052742,Set,2017_12_21_1807,
"[2.7, 2.7]",2,0,8,8,7,,,,,16,0,16,0,down,0.425449943519,AES,f,23,60.0008052742,Set,2017_12_21_1807,
"[2.7, 2.7]",2,0,8,8,7,,,,,17,0,17,0,left,0.758839987684,AES,f,23,60.0008052742,Set,2017_12_21_1807,
"[2.7, 2.7]",2,0,8,8,7,,,,,18,0,18,0,left,0.542091044132,AES,f,23,60.0008052742,Set,2017_12_21_1807,
"[2.7, 2.7]",2,0,8,8,7,,,,,19,0,19,0,left,0.425471259397,AES,f,23,60.0008052742,Set,2017_12_21_1807,
"[2.7, 2.7]",2,0,8,8,7,,,,,20,0,20,0,left,0.442103202222,AES,f,23,60.0008052742,Set,2017_12_21_1807,
"[2.7, 2.7]",2,0,8,8,7,,,,,21,0,21,0,down,0.508790842723,AES,f,23,60.0008052742,Set,2017_12_21_1807,
"[2.7, 2.7]",2,0,8,8,7,,,,,22,0,22,0,left,0.458805013797,AES,f,23,60.0008052742,Set,2017_12_21_1807,
"[2.7, 2.7]",2,0,8,8,7,,,,,23,0,23,0,down,1.10878342157,AES,f,23,60.0008052742,Set,2017_12_21_1807,
"[2.7, 2.7]",2,0,8,8,7,,,,,24,0,24,0,left,0.458840935025,AES,f,23,60.0008052742,Set,2017_12_21_1807,
"[2.7, 2.7]",2,0,8,8,7,,,,,25,0,25,0,down,0.475439719739,AES,f,23,60.0008052742,Set,2017_12_21_1807,
"[2.7, 2.7]",2,0,8,8,7,,,,,26,0,26,0,left,0.392118952237,AES,f,23,60.0008052742,Set,2017_12_21_1807,
"[2.7, 2.7]",2,0,8,8,7,,,,,27,0,27,0,left,0.408797474345,AES,f,23,60.0008052742,Set,2017_12_21_1807,
"[2.7, 2.7]",2,0,8,8,7,,,,,28,0,28,0,left,0.442091360106,AES,f,23,60.0008052742,Set,2017_12_21_1807,
"[2.7, 2.7]",2,0,8,8,7,,,,,29,0,29,0,down,0.808772132033,AES,f,23,60.0008052742,Set,2017_12_21_1807,
"[2.7, 2.7]",2,0,8,8,7,,,,,30,0,30,0,down,0.641942701186,AES,f,23,60.0008052742,Set,2017_12_21_1807,
"[2.7, 2.7]",2,0,8,8,7,,,,,31,0,31,0,left,0.408814448165,AES,f,23,60.0008052742,Set,2017_12_21_1807,
"[2.7, 2.7]",2,0,8,8,7,,,,,32,0,32,0,left,0.558816540171,AES,f,23,60.0008052742,Set,2017_12_21_1807,
"[2.7, 2.7]",2,0,8,8,7,,,,,33,0,33,0,left,0.558766803006,AES,f,23,60.0008052742,Set,2017_12_21_1807,
"[2.7, 2.7]",2,0,8,8,7,,,,,34,0,34,0,left,0.458792776801,AES,f,23,60.0008052742,Set,2017_12_21_1807,
"[2.7, 2.7]",2,0,8,8,7,,,,,35,0,35,0,left,0.742137781344,AES,f,23,60.0008052742,Set,2017_12_21_1807,
"[2.7, 2.7]",2,0,8,8,7,,,,,36,0,36,0,left,0.675476193777,AES,f,23,60.0008052742,Set,2017_12_21_1807,
"[2.7, 2.7]",2,0,8,8,7,,,,,37,0,37,0,left,0.808789105737,AES,f,23,60.0008052742,Set,2017_12_21_1807,
"[2.7, 2.7]",2,0,8,8,7,,,,,38,0,38,0,left,0.592111215345,AES,f,23,60.0008052742,Set,2017_12_21_1807,
"[2.7, 2.7]",2,0,8,8,7,,,,,39,0,39,0,down,0.775482193683,AES,f,23,60.0008052742,Set,2017_12_21_1807,
"[2.7, 2.7]",2,0,8,8,7,,,,,40,0,40,0,left,0.425454285694,AES,f,23,60.0008052742,Set,2017_12_21_1807,
"[2.7, 2.7]",2,0,8,8,7,,,,,41,0,41,0,left,0.425451917225,AES,f,23,60.0008052742,Set,2017_12_21_1807,
"[2.7, 2.7]",2,0,8,8,7,,,,,42,0,42,0,down,0.792130715447,AES,f,23,60.0008052742,Set,2017_12_21_1807,
"[2.7, 2.7]",2,0,8,8,7,,,,,43,0,43,0,left,0.442138728686,AES,f,23,60.0008052742,Set,2017_12_21_1807,
"[2.7, 2.7]",2,0,8,8,7,,,,,44,0,44,0,left,0.308783579501,AES,f,23,60.0008052742,Set,2017_12_21_1807,
"[2.7, 2.7]",2,0,8,8,7,,,,,45,0,45,0,left,0.692114452249,AES,f,23,60.0008052742,Set,2017_12_21_1807,
"[2.7, 2.7]",2,0,8,8,7,,,,,46,0,46,0,left,0.49212889967,AES,f,23,60.0008052742,Set,2017_12_21_1807,
"[2.7, 2.7]",2,0,8,8,7,,,,,47,0,47,0,left,0.39214461029,AES,f,23,60.0008052742,Set,2017_12_21_1807,
"[2.7, 2.7]",2,0,8,8,7,,,,,48,0,48,0,left,0.342146149836,AES,f,23,60.0008052742,Set,2017_12_21_1807,
"[2.7, 2.7]",2,0,8,8,7,,,,,49,0,49,0,down,0.608631841722,AES,f,23,60.0008052742,Set,2017_12_21_1807,
"[2.7, 2.7]",2,0,8,8,7,,,,,50,0,50,0,left,0.508791632135,AES,f,23,60.0008052742,Set,2017_12_21_1807,
"[2.7, 2.7]",2,0,8,8,7,,,,,51,0,51,0,left,0.358791908482,AES,f,23,60.0008052742,Set,2017_12_21_1807,
"[2.7, 2.7]",2,0,8,8,7,,,,,52,0,52,0,left,0.492134820786,AES,f,23,60.0008052742,Set,2017_12_21_1807,
"[2.7, 2.7]",2,0,8,8,7,,,,,53,0,53,0,down,0.575442167115,AES,f,23,60.0008052742,Set,2017_12_21_1807,
"[2.7, 2.7]",2,0,8,8,7,,,,,54,0,54,0,left,0.375463325065,AES,f,23,60.0008052742,Set,2017_12_21_1807,
"[2.7, 2.7]",2,0,8,8,7,,,,,55,0,55,0,left,0.375430561835,AES,f,23,60.0008052742,Set,2017_12_21_1807,
"[2.7, 2.7]",2,0,8,8,7,,,,,56,0,56,0,down,0.442124912865,AES,f,23,60.0008052742,Set,2017_12_21_1807,
"[2.7, 2.7]",2,0,8,8,7,,,,,57,0,57,0,left,0.425455864519,AES,f,23,60.0008052742,Set,2017_12_21_1807,
"[2.7, 2.7]",2,0,8,8,7,,,,,58,0,58,0,down,0.975451167207,AES,f,23,60.0008052742,Set,2017_12_21_1807,
"[2.7, 2.7]",2,0,8,8,7,,,,,59,0,59,0,down,0.625456811977,AES,f,23,60.0008052742,Set,2017_12_21_1807,
"[2.7, 2.7]",2,0,8,8,7,,,,,60,0,60,0,left,0.308777658385,AES,f,23,60.0008052742,Set,2017_12_21_1807,
"[2.7, 2.7]",2,0,8,8,7,,,,,61,0,61,0,left,0.425442838226,AES,f,23,60.0008052742,Set,2017_12_21_1807,
"[2.7, 2.7]",2,0,8,8,7,,,,,62,0,62,0,left,0.508796763723,AES,f,23,60.0008052742,Set,2017_12_21_1807,
"[2.7, 2.7]",2,0,8,8,7,,,,,63,0,63,0,left,0.708803237532,AES,f,23,60.0008052742,Set,2017_12_21_1807,
"[2.7, 2.7]",2,0,8,8,7,,,,,64,0,64,0,down,0.64212625497,AES,f,23,60.0008052742,Set,2017_12_21_1807,
"[2.7, 2.7]",2,0,8,8,7,,,,,65,0,65,0,down,0.74212041276,AES,f,23,60.0008052742,Set,2017_12_21_1807,
"[2.7, 2.7]",2,0,8,8,7,,,,,66,0,66,0,left,0.35883651406,AES,f,23,60.0008052742,Set,2017_12_21_1807,
"[2.7, 2.7]",2,0,8,8,7,,,,,67,0,67,0,left,0.592117136577,AES,f,23,60.0008052742,Set,2017_12_21_1807,
"[2.7, 2.7]",2,0,8,8,7,,,,,68,0,68,0,down,0.775451798807,AES,f,23,60.0008052742,Set,2017_12_21_1807,
"[2.7, 2.7]",2,0,8,8,7,,,,,69,0,69,0,left,0.358787961071,AES,f,23,60.0008052742,Set,2017_12_21_1807,
"[2.7, 2.7]",2,0,8,8,7,,,,,70,0,70,0,left,0.425456654048,AES,f,23,60.0008052742,Set,2017_12_21_1807,
"[2.7, 2.7]",2,0,8,8,7,,,,,71,0,71,0,left,0.975452746148,AES,f,23,60.0008052742,Set,2017_12_21_1807,
"[2.7, 2.7]",2,0,8,8,7,,,,,72,0,72,0,down,0.992123373318,AES,f,23,60.0008052742,Set,2017_12_21_1807,
"[2.7, 2.7]",2,0,8,8,7,,,,,73,0,73,0,left,0.392200268572,AES,f,23,60.0008052742,Set,2017_12_21_1807,
"[2.7, 2.7]",2,0,8,8,7,,,,,74,0,74,0,left,0.342128386605,AES,f,23,60.0008052742,Set,2017_12_21_1807,
"[2.7, 2.7]",2,0,8,8,7,,,,,75,0,75,0,left,0.342120886547,AES,f,23,60.0008052742,Set,2017_12_21_1807,
"[2.7, 2.7]",2,0,8,8,7,,,,,76,0,76,0,left,0.342146149836,AES,f,23,60.0008052742,Set,2017_12_21_1807,
"[2.7, 2.7]",2,0,8,8,7,,,,,77,0,77,0,left,0.442124912865,AES,f,23,60.0008052742,Set,2017_12_21_1807,
"[2.7, 2.7]",2,0,8,8,7,,,,,78,0,78,0,left,1.34210746537,AES,f,23,60.0008052742,Set,2017_12_21_1807,
"[2.7, 2.7]",2,0,8,8,7,,,,,79,0,79,0,left,0.825441969791,AES,f,23,60.0008052742,Set,2017_12_21_1807,
"[2.7, 2.7]",2,0,8,8,7,,,,,80,0,80,0,left,0.542111965362,AES,f,23,60.0008052742,Set,2017_12_21_1807,
"[2.7, 2.7]",2,0,8,8,7,,,,,81,0,81,0,left,0.425468496163,AES,f,23,60.0008052742,Set,2017_12_21_1807,
"[2.7, 2.7]",2,0,8,8,7,,,,,82,0,82,0,left,1.47543932498,AES,f,23,60.0008052742,Set,2017_12_21_1807,
"[2.7, 2.7]",2,0,8,8,7,,,,,83,0,83,0,down,0.608819737565,AES,f,23,60.0008052742,Set,2017_12_21_1807,
"[2.7, 2.7]",2,0,8,8,7,,,,,84,0,84,0,left,0.925473233103,AES,f,23,60.0008052742,Set,2017_12_21_1807,
"[2.7, 2.7]",2,0,8,8,7,,,,,85,0,85,0,down,0.758791434811,AES,f,23,60.0008052742,Set,2017_12_21_1807,
"[2.7, 2.7]",2,0,8,8,7,,,,,86,0,86,0,left,0.508799526957,AES,f,23,60.0008052742,Set,2017_12_21_1807,
"[2.7, 2.7]",2,0,8,8,7,,,,,87,0,87,0,down,0.558809434879,AES,f,23,60.0008052742,Set,2017_12_21_1807,
"[2.7, 2.7]",2,0,8,8,7,,,,,88,0,88,0,left,0.492121399613,AES,f,23,60.0008052742,Set,2017_12_21_1807,
"[2.7, 2.7]",2,0,8,8,7,,,,,89,0,89,0,down,0.87547635159,AES,f,23,60.0008052742,Set,2017_12_21_1807,
"[2.7, 2.7]",2,0,8,8,7,,,,,90,0,90,0,left,0.458732381812,AES,f,23,60.0008052742,Set,2017_12_21_1807,
"[2.7, 2.7]",2,0,8,8,7,,,,,91,0,91,0,down,0.692131820833,AES,f,23,60.0008052742,Set,2017_12_21_1807,
"[2.7, 2.7]",2,0,8,8,7,,,,,92,0,92,0,down,0.44214149192,AES,f,23,60.0008052742,Set,2017_12_21_1807,
"[2.6, 2.6]",6,0,9,9,5,,,,,0,0,0,0,left,0.666906010243,AES,f,23,60.0008052742,Set,2017_12_21_1807,
"[2.6, 2.6]",6,0,9,9,5,,,,,1,0,1,0,left,0.750235856744,AES,f,23,60.0008052742,Set,2017_12_21_1807,
"[2.6, 2.6]",6,0,9,9,5,,,,,2,0,2,0,down,0.508783342666,AES,f,23,60.0008052742,Set,2017_12_21_1807,
"[2.6, 2.6]",6,0,9,9,5,,,,,3,0,3,0,left,0.758621696848,AES,f,23,60.0008052742,Set,2017_12_21_1807,
"[2.6, 2.6]",6,0,9,9,5,,,,,4,0,4,0,left,0.425457838341,AES,f,23,60.0008052742,Set,2017_12_21_1807,
"[2.6, 2.6]",6,0,9,9,5,,,,,5,0,5,0,down,0.608833158738,AES,f,23,60.0008052742,Set,2017_12_21_1807,
"[2.6, 2.6]",6,0,9,9,5,,,,,6,0,6,0,down,0.542130123475,AES,f,23,60.0008052742,Set,2017_12_21_1807,
"[2.6, 2.6]",2,0,10,10,1,,,,,0,0,0,0,left,0.592091478524,AES,f,23,60.0008052742,Set,2017_12_21_1807,
"[2.6, 2.6]",2,0,10,10,1,,,,,1,0,1,0,left,0.542128939182,AES,f,23,60.0008052742,Set,2017_12_21_1807,
"[2.6, 2.6]",2,0,10,10,1,,,,,2,0,2,0,down,0.558833119343,AES,f,23,60.0008052742,Set,2017_12_21_1807,
"[2.6, 2.6]",2,0,10,10,1,,,,,3,0,3,0,left,0.575458746171,AES,f,23,60.0008052742,Set,2017_12_21_1807,
"[2.6, 2.6]",2,0,10,10,1,,,,,4,0,4,0,left,0.825447890908,AES,f,23,60.0008052742,Set,2017_12_21_1807,
"[2.6, 2.6]",2,0,10,10,1,,,,,5,0,5,0,down,0.458785671624,AES,f,23,60.0008052742,Set,2017_12_21_1807,
"[2.6, 2.6]",2,0,10,10,1,,,,,6,0,6,0,left,0.425477970042,AES,f,23,60.0008052742,Set,2017_12_21_1807,
"[2.6, 2.6]",2,0,10,10,1,,,,,7,0,7,0,left,0.392114610178,AES,f,23,60.0008052742,Set,2017_12_21_1807,
"[2.6, 2.6]",2,0,10,10,1,,,,,8,0,8,0,left,0.4421245181,AES,f,23,60.0008052742,Set,2017_12_21_1807,
"[2.6, 2.6]",2,0,10,10,1,,,,,9,0,9,0,down,0.558800355881,AES,f,23,60.0008052742,Set,2017_12_21_1807,
"[2.6, 2.6]",2,0,10,10,1,,,,,10,0,10,0,down,0.542139991885,AES,f,23,60.0008052742,Set,2017_12_21_1807,
"[2.6, 2.6]",2,0,10,10,1,,,,,11,0,11,0,left,0.825481443666,AES,f,23,60.0008052742,Set,2017_12_21_1807,
"[2.6, 2.6]",2,0,10,10,1,,,,,12,0,12,0,down,0.592108452227,AES,f,23,60.0008052742,Set,2017_12_21_1807,
"[2.6, 2.6]",2,0,10,10,1,,,,,13,0,13,0,down,0.725448206649,AES,f,23,60.0008052742,Set,2017_12_21_1807,
"[2.7, 2.7]",6,0,11,11,11,,,,,0,0,0,0,down,0.633537913556,AES,f,23,60.0008052742,Set,2017_12_21_1807,
"[2.7, 2.7]",6,0,11,11,11,,,,,1,0,1,0,down,0.725471496349,AES,f,23,60.0008052742,Set,2017_12_21_1807,
"[2.9, 2.9]",5,0,12,12,22,,,,,0,0,0,0,left,0.858795855893,AES,f,23,60.0008052742,Set,2017_12_21_1807,
"[2.9, 2.9]",5,0,12,12,22,,,,,1,0,1,0,down,1.14212586021,AES,f,23,60.0008052742,Set,2017_12_21_1807,
"[2.9, 2.9]",5,0,12,12,22,,,,,2,0,2,0,left,1.44210596546,AES,f,23,60.0008052742,Set,2017_12_21_1807,
"[2.9, 2.9]",5,0,12,12,22,,,,,3,0,3,0,down,0.558800355881,AES,f,23,60.0008052742,Set,2017_12_21_1807,
"[2.9, 2.9]",5,0,12,12,22,,,,,4,0,4,0,left,0.658786224318,AES,f,23,60.0008052742,Set,2017_12_21_1807,
"[2.9, 2.9]",5,0,12,12,22,,,,,5,0,5,0,left,0.625456417329,AES,f,23,60.0008052742,Set,2017_12_21_1807,
"[2.9, 2.9]",5,0,12,12,22,,,,,6,0,6,0,down,0.608772763633,AES,f,23,60.0008052742,Set,2017_12_21_1807,
"[2.9, 2.9]",5,0,12,12,22,,,,,7,0,7,0,down,0.492124162847,AES,f,23,60.0008052742,Set,2017_12_21_1807,
"[2.7, 2.7]",4,0,13,13,9,,,,,0,0,0,0,left,0.525487127947,AES,f,23,60.0008052742,Set,2017_12_21_1807,
"[2.7, 2.7]",4,0,13,13,9,,,,,1,0,1,0,down,0.475468141027,AES,f,23,60.0008052742,Set,2017_12_21_1807,
"[2.7, 2.7]",4,0,13,13,9,,,,,2,0,2,0,down,0.492126136553,AES,f,23,60.0008052742,Set,2017_12_21_1807,
"[2.8, 2.8]",2,0,14,14,13,,,,,0,0,0,0,left,0.575459535699,AES,f,23,60.0008052742,Set,2017_12_21_1807,
"[2.8, 2.8]",2,0,14,14,13,,,,,1,0,1,0,left,0.358785987366,AES,f,23,60.0008052742,Set,2017_12_21_1807,
"[2.8, 2.8]",2,0,14,14,13,,,,,2,0,2,0,left,0.442103991634,AES,f,23,60.0008052742,Set,2017_12_21_1807,
"[2.8, 2.8]",2,0,14,14,13,,,,,3,0,3,0,left,0.392121715471,AES,f,23,60.0008052742,Set,2017_12_21_1807,
"[2.8, 2.8]",2,0,14,14,13,,,,,4,0,4,0,left,0.392130399821,AES,f,23,60.0008052742,Set,2017_12_21_1807,
"[2.8, 2.8]",2,0,14,14,13,,,,,5,0,5,0,down,0.658798855962,AES,f,23,60.0008052742,Set,2017_12_21_1807,
"[2.8, 2.8]",2,0,14,14,13,,,,,6,0,6,0,down,0.442133991863,AES,f,23,60.0008052742,Set,2017_12_21_1807,
"[2.8, 2.8]",2,0,14,14,13,,,,,7,0,7,0,left,0.525309890043,AES,f,23,60.0008052742,Set,2017_12_21_1807,
"[2.8, 2.8]",2,0,14,14,13,,,,,8,0,8,0,left,0.358787961071,AES,f,23,60.0008052742,Set,2017_12_21_1807,
"[2.8, 2.8]",2,0,14,14,13,,,,,9,0,9,0,down,0.792129926034,AES,f,23,60.0008052742,Set,2017_12_21_1807,
"[2.8, 2.8]",2,0,14,14,13,,,,,10,0,10,0,down,0.708818632294,AES,f,23,60.0008052742,Set,2017_12_21_1807,
"[2.6, 2.6]",3,0,15,15,2,,,,,0,0,0,0,down,0.575450456701,AES,f,23,60.0008052742,Set,2017_12_21_1807,
"[2.6, 2.6]",3,0,15,15,2,,,,,1,0,1,0,down,0.625471417326,AES,f,23,60.0008052742,Set,2017_12_21_1807,
"[2.6, 2.6]",5,0,16,16,4,,,,,0,0,0,0,left,1.25022835657,AES,f,23,60.0008052742,Set,2017_12_21_1807,
"[2.6, 2.6]",5,0,16,16,4,,,,,1,0,1,0,down,0.625464706798,AES,f,23,60.0008052742,Set,2017_12_21_1807,
"[2.6, 2.6]",5,0,16,16,4,,,,,2,0,2,0,left,0.82529867941,AES,f,23,60.0008052742,Set,2017_12_21_1807,
"[2.6, 2.6]",5,0,16,16,4,,,,,3,0,3,0,down,0.8254609172,AES,f,23,60.0008052742,Set,2017_12_21_1807,
"[2.6, 2.6]",5,0,16,16,4,,,,,4,0,4,0,down,0.458769487333,AES,f,23,60.0008052742,Set,2017_12_21_1807,
"[3.0, 3.0]",3,0,17,17,26,,,,,0,0,0,0,left,0.516903128591,AES,f,23,60.0008052742,Set,2017_12_21_1807,
"[3.0, 3.0]",3,0,17,17,26,,,,,1,0,1,0,down,0.442118991748,AES,f,23,60.0008052742,Set,2017_12_21_1807,
"[3.0, 3.0]",3,0,17,17,26,,,,,2,0,2,0,left,0.658794908435,AES,f,23,60.0008052742,Set,2017_12_21_1807,
"[3.0, 3.0]",3,0,17,17,26,,,,,3,0,3,0,down,0.4087907637,AES,f,23,60.0008052742,Set,2017_12_21_1807,
"[3.0, 3.0]",3,0,17,17,26,,,,,4,0,4,0,down,0.408826290164,AES,f,23,60.0008052742,Set,2017_12_21_1807,
"[3.0, 3.0]",3,0,17,17,26,,,,,5,0,5,0,right,0.542138412944,AES,f,23,60.0008052742,Set,2017_12_21_1807,
"[3.0, 3.0]",3,0,17,17,26,,,,,6,0,6,0,left,0.4421478078,AES,f,23,60.0008052742,Set,2017_12_21_1807,
"[3.0, 3.0]",3,0,17,17,26,,,,,7,0,7,0,down,0.475450772443,AES,f,23,60.0008052742,Set,2017_12_21_1807,
"[3.0, 3.0]",3,0,17,17,26,,,,,8,0,8,0,down,0.575445719762,AES,f,23,60.0008052742,Set,2017_12_21_1807,
"[3.0, 3.0]",4,0,18,18,27,,,,,0,0,0,0,down,1.18339979427,AES,f,23,60.0008052742,Set,2017_12_21_1807,
"[3.0, 3.0]",4,0,18,18,27,,,,,1,0,1,0,down,0.692104978487,AES,f,23,60.0008052742,Set,2017_12_21_1807,
"[3.0, 3.0]",5,0,19,19,28,,,,,0,0,0,0,left,0.558755750302,AES,f,23,60.0008052742,Set,2017_12_21_1807,
"[3.0, 3.0]",5,0,19,19,28,,,,,1,0,1,0,left,0.608803158626,AES,f,23,60.0008052742,Set,2017_12_21_1807,
"[3.0, 3.0]",5,0,19,19,28,,,,,2,0,2,0,down,0.708784684772,AES,f,23,60.0008052742,Set,2017_12_21_1807,
"[3.0, 3.0]",5,0,19,19,28,,,,,3,0,3,0,left,0.508807816426,AES,f,23,60.0008052742,Set,2017_12_21_1807,
"[3.0, 3.0]",5,0,19,19,28,,,,,4,0,4,0,left,0.44210596534,AES,f,23,60.0008052742,Set,2017_12_21_1807,
"[3.0, 3.0]",5,0,19,19,28,,,,,5,0,5,0,down,0.958801066387,AES,f,23,60.0008052742,Set,2017_12_21_1807,
"[3.0, 3.0]",5,0,19,19,28,,,,,6,0,6,0,left,0.492125741905,AES,f,23,60.0008052742,Set,2017_12_21_1807,
"[3.0, 3.0]",5,0,19,19,28,,,,,7,0,7,0,left,0.475412088097,AES,f,23,60.0008052742,Set,2017_12_21_1807,
"[3.0, 3.0]",5,0,19,19,28,,,,,8,0,8,0,left,0.408777737292,AES,f,23,60.0008052742,Set,2017_12_21_1807,
"[3.0, 3.0]",5,0,19,19,28,,,,,9,0,9,0,down,0.67543908814,AES,f,23,60.0008052742,Set,2017_12_21_1807,
"[3.0, 3.0]",5,0,19,19,28,,,,,10,0,10,0,down,0.458803829621,AES,f,23,60.0008052742,Set,2017_12_21_1807,
"[2.9, 2.9]",4,0,20,20,21,,,,,0,0,0,0,left,0.550065171439,AES,f,23,60.0008052742,Set,2017_12_21_1807,
"[2.9, 2.9]",4,0,20,20,21,,,,,1,0,1,0,left,0.442107544397,AES,f,23,60.0008052742,Set,2017_12_21_1807,
"[2.9, 2.9]",4,0,20,20,21,,,,,2,0,2,0,left,0.508780974196,AES,f,23,60.0008052742,Set,2017_12_21_1807,
"[2.9, 2.9]",4,0,20,20,21,,,,,3,0,3,0,left,0.558818513877,AES,f,23,60.0008052742,Set,2017_12_21_1807,
"[2.9, 2.9]",4,0,20,20,21,,,,,4,0,4,0,down,0.475455114618,AES,f,23,60.0008052742,Set,2017_12_21_1807,
"[2.9, 2.9]",4,0,20,20,21,,,,,5,0,5,0,down,0.575470588286,AES,f,23,60.0008052742,Set,2017_12_21_1807,
"[2.8, 2.8]",4,0,21,21,15,,,,,0,0,0,0,left,0.558782987297,AES,f,23,60.0008052742,Set,2017_12_21_1807,
"[2.8, 2.8]",4,0,21,21,15,,,,,1,0,1,0,down,0.558631802211,AES,f,23,60.0008052742,Set,2017_12_21_1807,
"[2.8, 2.8]",4,0,21,21,15,,,,,2,0,2,0,left,0.408838527277,AES,f,23,60.0008052742,Set,2017_12_21_1807,
"[2.8, 2.8]",4,0,21,21,15,,,,,3,0,3,0,down,0.542115518125,AES,f,23,60.0008052742,Set,2017_12_21_1807,
"[2.8, 2.8]",4,0,21,21,15,,,,,4,0,4,0,down,0.30879423744,AES,f,23,60.0008052742,Set,2017_12_21_1807,
"[2.8, 2.8]",3,0,22,22,14,,,,,0,0,0,0,left,0.500234475126,AES,f,23,60.0008052742,Set,2017_12_21_1807,
"[2.8, 2.8]",3,0,22,22,14,,,,,1,0,1,0,down,0.57545716723,AES,f,23,60.0008052742,Set,2017_12_21_1807,
"[2.8, 2.8]",3,0,22,22,14,,,,,2,0,2,0,down,0.408799447934,AES,f,23,60.0008052742,Set,2017_12_21_1807,
"[2.7, 2.7]",3,0,23,23,8,,,,,0,0,0,0,left,0.475468930439,AES,f,23,60.0008052742,Set,2017_12_21_1807,
"[2.7, 2.7]",3,0,23,23,8,,,,,1,0,1,0,down,0.408775368938,AES,f,23,60.0008052742,Set,2017_12_21_1807,
"[2.7, 2.7]",3,0,23,23,8,,,,,2,0,2,0,down,0.258809592808,AES,f,23,60.0008052742,Set,2017_12_21_1807,
"[2.6, 2.6]",4,0,24,24,3,,,,,0,0,0,0,left,0.583562742686,AES,f,23,60.0008052742,Set,2017_12_21_1807,
"[2.6, 2.6]",4,0,24,24,3,,,,,1,0,1,0,down,0.508795579663,AES,f,23,60.0008052742,Set,2017_12_21_1807,
"[2.6, 2.6]",4,0,24,24,3,,,,,2,0,2,0,down,0.37542029866,AES,f,23,60.0008052742,Set,2017_12_21_1807,
"[2.8, 2.8]",6,0,25,25,17,,,,,0,0,0,0,down,0.466886904789,AES,f,23,60.0008052742,Set,2017_12_21_1807,
"[2.8, 2.8]",6,0,25,25,17,,,,,1,0,1,0,down,0.358782039955,AES,f,23,60.0008052742,Set,2017_12_21_1807,
"[2.9, 2.9]",1,0,26,26,18,,,,,0,0,0,0,left,0.658812671667,AES,f,23,60.0008052742,Set,2017_12_21_1807,
"[2.9, 2.9]",1,0,26,26,18,,,,,1,0,1,0,down,0.542104860069,AES,f,23,60.0008052742,Set,2017_12_21_1807,
"[2.9, 2.9]",1,0,26,26,18,,,,,2,0,2,0,down,0.458797513857,AES,f,23,60.0008052742,Set,2017_12_21_1807,
"[2.8, 2.8]",1,0,27,27,12,,,,,0,0,0,0,left,0.508754921495,AES,f,23,60.0008052742,Set,2017_12_21_1807,
"[2.8, 2.8]",1,0,27,27,12,,,,,1,0,1,0,down,0.442134386627,AES,f,23,60.0008052742,Set,2017_12_21_1807,
"[2.8, 2.8]",1,0,27,27,12,,,,,2,0,2,0,down,0.308789105853,AES,f,23,60.0008052742,Set,2017_12_21_1807,
"[3.0, 3.0]",2,0,28,28,25,,,,,0,0,0,0,left,0.475464983028,AES,f,23,60.0008052742,Set,2017_12_21_1807,
"[3.0, 3.0]",2,0,28,28,25,,,,,1,0,1,0,down,0.32529117947,AES,f,23,60.0008052742,Set,2017_12_21_1807,
"[3.0, 3.0]",2,0,28,28,25,,,,,2,0,2,0,down,0.608789737336,AES,f,23,60.0008052742,Set,2017_12_21_1807,
"[2.9, 2.9]",2,0,29,29,19,,,,,0,0,0,0,left,0.666904431186,AES,f,23,60.0008052742,Set,2017_12_21_1807,
"[2.9, 2.9]",2,0,29,29,19,,,,,1,0,1,0,left,0.892128031352,AES,f,23,60.0008052742,Set,2017_12_21_1807,
"[2.9, 2.9]",2,0,29,29,19,,,,,2,0,2,0,down,0.408807342756,AES,f,23,60.0008052742,Set,2017_12_21_1807,
"[2.9, 2.9]",2,0,29,29,19,,,,,3,0,3,0,down,0.375440430362,AES,f,23,60.0008052742,Set,2017_12_21_1807,
