size,n,trials_2.thisRepN,trials_2.thisTrialN,trials_2.thisN,trials_2.thisIndex,trials.thisRepN,trials.thisTrialN,trials.thisN,trials.thisIndex,trials_3.thisRepN,trials_3.thisTrialN,trials_3.thisN,trials_3.thisIndex,answer.keys,answer.rt,participant,gender,age,frameRate,expName,date,
"[2.6, 2.6]",6,0,0,0,5,,,,,0,0,0,0,right,8.22544544347,AK,f,21,60.0066323621,Set,2017_12_15_1416,
"[2.6, 2.6]",6,0,0,0,5,,,,,1,0,1,0,left,1.79212400495,AK,f,21,60.0066323621,Set,2017_12_15_1416,
"[2.6, 2.6]",6,0,0,0,5,,,,,2,0,2,0,down,3.99208587315,AK,f,21,60.0066323621,Set,2017_12_15_1416,
"[2.6, 2.6]",6,0,0,0,5,,,,,3,0,3,0,down,0.708772842569,AK,f,21,60.0066323621,Set,2017_12_15_1416,
"[2.6, 2.6]",6,0,0,0,5,,,,,4,0,4,0,right,0.975450772443,AK,f,21,60.0066323621,Set,2017_12_15_1416,
"[2.6, 2.6]",6,0,0,0,5,,,,,5,0,5,0,right,1.3921007943,AK,f,21,60.0066323621,Set,2017_12_15_1416,
"[2.6, 2.6]",6,0,0,0,5,,,,,6,0,6,0,left,1.12543549607,AK,f,21,60.0066323621,Set,2017_12_15_1416,
"[2.6, 2.6]",6,0,0,0,5,,,,,7,0,7,0,down,0.775441535574,AK,f,21,60.0066323621,Set,2017_12_15_1416,
"[2.6, 2.6]",6,0,0,0,5,,,,,8,0,8,0,down,0.65018801429,AK,f,21,60.0066323621,Set,2017_12_15_1416,
"[2.6, 2.6]",6,0,0,0,5,,,,,9,0,9,0,right,0.958781329478,AK,f,21,60.0066323621,Set,2017_12_15_1416,
"[2.6, 2.6]",6,0,0,0,5,,,,,10,0,10,0,right,0.758779592608,AK,f,21,60.0066323621,Set,2017_12_15_1416,
"[2.6, 2.6]",6,0,0,0,5,,,,,11,0,11,0,right,0.525468180451,AK,f,21,60.0066323621,Set,2017_12_15_1416,
"[2.6, 2.6]",6,0,0,0,5,,,,,12,0,12,0,right,0.592169242067,AK,f,21,60.0066323621,Set,2017_12_15_1416,
"[2.6, 2.6]",6,0,0,0,5,,,,,13,0,13,0,down,0.408803395403,AK,f,21,60.0066323621,Set,2017_12_15_1416,
"[2.6, 2.6]",6,0,0,0,5,,,,,14,0,14,0,down,0.475453535619,AK,f,21,60.0066323621,Set,2017_12_15_1416,
"[2.6, 2.6]",2,0,1,1,1,,,,,0,0,0,0,down,1.75876419779,AK,f,21,60.0066323621,Set,2017_12_15_1416,
"[2.6, 2.6]",2,0,1,1,1,,,,,1,0,1,0,down,0.575439798733,AK,f,21,60.0066323621,Set,2017_12_15_1416,
"[2.6, 2.6]",3,0,2,2,2,,,,,0,0,0,0,down,0.566732640757,AK,f,21,60.0066323621,Set,2017_12_15_1416,
"[2.6, 2.6]",3,0,2,2,2,,,,,1,0,1,0,right,0.683577821648,AK,f,21,60.0066323621,Set,2017_12_15_1416,
"[2.6, 2.6]",3,0,2,2,2,,,,,2,0,2,0,down,0.27545969357,AK,f,21,60.0066323621,Set,2017_12_15_1416,
"[2.6, 2.6]",3,0,2,2,2,,,,,3,0,3,0,right,0.375454246183,AK,f,21,60.0066323621,Set,2017_12_15_1416,
"[2.6, 2.6]",3,0,2,2,2,,,,,4,0,4,0,down,0.325501180661,AK,f,21,60.0066323621,Set,2017_12_15_1416,
"[2.6, 2.6]",3,0,2,2,2,,,,,5,0,5,0,right,0.242121597053,AK,f,21,60.0066323621,Set,2017_12_15_1416,
"[2.6, 2.6]",3,0,2,2,2,,,,,6,0,6,0,down,0.25878590846,AK,f,21,60.0066323621,Set,2017_12_15_1416,
"[2.6, 2.6]",3,0,2,2,2,,,,,7,0,7,0,right,0.258647749724,AK,f,21,60.0066323621,Set,2017_12_15_1416,
"[2.6, 2.6]",3,0,2,2,2,,,,,8,0,8,0,down,0.225460048823,AK,f,21,60.0066323621,Set,2017_12_15_1416,
"[2.6, 2.6]",3,0,2,2,2,,,,,9,0,9,0,right,0.258793013752,AK,f,21,60.0066323621,Set,2017_12_15_1416,
"[2.6, 2.6]",3,0,2,2,2,,,,,10,0,10,0,left,0.492123768112,AK,f,21,60.0066323621,Set,2017_12_15_1416,
"[2.6, 2.6]",3,0,2,2,2,,,,,11,0,11,0,down,0.258780776843,AK,f,21,60.0066323621,Set,2017_12_15_1416,
"[2.6, 2.6]",3,0,2,2,2,,,,,12,0,12,0,down,0.392176978989,AK,f,21,60.0066323621,Set,2017_12_15_1416,
"[2.8, 2.8]",3,0,3,3,14,,,,,0,0,0,0,right,0.516918523441,AK,f,21,60.0066323621,Set,2017_12_15_1416,
"[2.8, 2.8]",3,0,3,3,14,,,,,1,0,1,0,down,0.408794711111,AK,f,21,60.0066323621,Set,2017_12_15_1416,
"[2.8, 2.8]",3,0,3,3,14,,,,,2,0,2,0,down,0.425436522404,AK,f,21,60.0066323621,Set,2017_12_15_1416,
"[2.7, 2.7]",2,0,4,4,7,,,,,0,0,0,0,right,0.392104346945,AK,f,21,60.0066323621,Set,2017_12_15_1416,
"[2.7, 2.7]",2,0,4,4,7,,,,,1,0,1,0,down,0.392129215528,AK,f,21,60.0066323621,Set,2017_12_15_1416,
"[2.7, 2.7]",2,0,4,4,7,,,,,2,0,2,0,down,0.175493167451,AK,f,21,60.0066323621,Set,2017_12_15_1416,
"[2.8, 2.8]",6,0,5,5,17,,,,,0,0,0,0,right,0.633586861164,AK,f,21,60.0066323621,Set,2017_12_15_1416,
"[2.8, 2.8]",6,0,5,5,17,,,,,1,0,1,0,down,0.692080504698,AK,f,21,60.0066323621,Set,2017_12_15_1416,
"[2.8, 2.8]",6,0,5,5,17,,,,,2,0,2,0,down,0.325293547823,AK,f,21,60.0066323621,Set,2017_12_15_1416,
"[2.8, 2.8]",6,0,5,5,17,,,,,3,0,3,0,left,0.408772605733,AK,f,21,60.0066323621,Set,2017_12_15_1416,
"[2.8, 2.8]",6,0,5,5,17,,,,,4,0,4,0,left,0.775469562039,AK,f,21,60.0066323621,Set,2017_12_15_1416,
"[2.8, 2.8]",6,0,5,5,17,,,,,5,0,5,0,left,0.542137623474,AK,f,21,60.0066323621,Set,2017_12_15_1416,
"[2.8, 2.8]",6,0,5,5,17,,,,,6,0,6,0,left,0.716909602343,AK,f,21,60.0066323621,Set,2017_12_15_1416,
"[2.8, 2.8]",6,0,5,5,17,,,,,7,0,7,0,down,0.7169171024,AK,f,21,60.0066323621,Set,2017_12_15_1416,
"[2.8, 2.8]",6,0,5,5,17,,,,,8,0,8,0,left,0.492126531288,AK,f,21,60.0066323621,Set,2017_12_15_1416,
"[2.8, 2.8]",6,0,5,5,17,,,,,9,0,9,0,left,0.408795895346,AK,f,21,60.0066323621,Set,2017_12_15_1416,
"[2.8, 2.8]",6,0,5,5,17,,,,,10,0,10,0,right,0.42543454867,AK,f,21,60.0066323621,Set,2017_12_15_1416,
"[2.8, 2.8]",6,0,5,5,17,,,,,11,0,11,0,left,0.442098465312,AK,f,21,60.0066323621,Set,2017_12_15_1416,
"[2.8, 2.8]",6,0,5,5,17,,,,,12,0,12,0,left,0.508746237145,AK,f,21,60.0066323621,Set,2017_12_15_1416,
"[2.8, 2.8]",6,0,5,5,17,,,,,13,0,13,0,left,0.408790368994,AK,f,21,60.0066323621,Set,2017_12_15_1416,
"[2.8, 2.8]",6,0,5,5,17,,,,,14,0,14,0,right,0.475491825346,AK,f,21,60.0066323621,Set,2017_12_15_1416,
"[2.8, 2.8]",6,0,5,5,17,,,,,15,0,15,0,down,0.475455904059,AK,f,21,60.0066323621,Set,2017_12_15_1416,
"[2.8, 2.8]",6,0,5,5,17,,,,,16,0,16,0,down,0.475438930298,AK,f,21,60.0066323621,Set,2017_12_15_1416,
"[2.9, 2.9]",2,0,6,6,19,,,,,0,0,0,0,right,0.45002403963,AK,f,21,60.0066323621,Set,2017_12_15_1416,
"[2.9, 2.9]",2,0,6,6,19,,,,,1,0,1,0,left,0.37546174624,AK,f,21,60.0066323621,Set,2017_12_15_1416,
"[2.9, 2.9]",2,0,6,6,19,,,,,2,0,2,0,left,0.425457443547,AK,f,21,60.0066323621,Set,2017_12_15_1416,
"[2.9, 2.9]",2,0,6,6,19,,,,,3,0,3,0,left,0.292181636905,AK,f,21,60.0066323621,Set,2017_12_15_1416,
"[2.9, 2.9]",2,0,6,6,19,,,,,4,0,4,0,right,0.392131189234,AK,f,21,60.0066323621,Set,2017_12_15_1416,
"[2.9, 2.9]",2,0,6,6,19,,,,,5,0,5,0,left,0.242135412933,AK,f,21,60.0066323621,Set,2017_12_15_1416,
"[2.9, 2.9]",2,0,6,6,19,,,,,6,0,6,0,down,0.142134149733,AK,f,21,60.0066323621,Set,2017_12_15_1416,
"[2.9, 2.9]",2,0,6,6,19,,,,,7,0,7,0,down,0.225555180979,AK,f,21,60.0066323621,Set,2017_12_15_1416,
"[3.0, 3.0]",2,0,7,7,25,,,,,0,0,0,0,right,0.342136676074,AK,f,21,60.0066323621,Set,2017_12_15_1416,
"[3.0, 3.0]",2,0,7,7,25,,,,,1,0,1,0,left,0.458789618977,AK,f,21,60.0066323621,Set,2017_12_15_1416,
"[3.0, 3.0]",2,0,7,7,25,,,,,2,0,2,0,right,0.258914198697,AK,f,21,60.0066323621,Set,2017_12_15_1416,
"[3.0, 3.0]",2,0,7,7,25,,,,,3,0,3,0,down,0.0754240091483,AK,f,21,60.0066323621,Set,2017_12_15_1416,
"[3.0, 3.0]",2,0,7,7,25,,,,,4,0,4,0,down,0.175470272574,AK,f,21,60.0066323621,Set,2017_12_15_1416,
"[2.8, 2.8]",5,0,8,8,16,,,,,0,0,0,0,right,0.100240869884,AK,f,21,60.0066323621,Set,2017_12_15_1416,
"[2.8, 2.8]",5,0,8,8,16,,,,,1,0,1,0,left,0.508780974196,AK,f,21,60.0066323621,Set,2017_12_15_1416,
"[2.8, 2.8]",5,0,8,8,16,,,,,2,0,2,0,down,0.0921147680492,AK,f,21,60.0066323621,Set,2017_12_15_1416,
"[2.8, 2.8]",5,0,8,8,16,,,,,3,0,3,0,down,0.0421317023574,AK,f,21,60.0066323621,Set,2017_12_15_1416,
"[3.0, 3.0]",1,0,9,9,24,,,,,0,0,0,0,right,0.666904036538,AK,f,21,60.0066323621,Set,2017_12_15_1416,
"[3.0, 3.0]",1,0,9,9,24,,,,,1,0,1,0,left,0.416908970772,AK,f,21,60.0066323621,Set,2017_12_15_1416,
"[3.0, 3.0]",1,0,9,9,24,,,,,2,0,2,0,down,0.125476154208,AK,f,21,60.0066323621,Set,2017_12_15_1416,
"[3.0, 3.0]",1,0,9,9,24,,,,,3,0,3,0,down,0.0587971979985,AK,f,21,60.0066323621,Set,2017_12_15_1416,
"[3.0, 3.0]",6,0,10,10,29,,,,,0,0,0,0,right,0.65880004011,AK,f,21,60.0066323621,Set,2017_12_15_1416,
"[3.0, 3.0]",6,0,10,10,29,,,,,1,0,1,0,left,0.408814842842,AK,f,21,60.0066323621,Set,2017_12_15_1416,
"[3.0, 3.0]",6,0,10,10,29,,,,,2,0,2,0,down,0.258787092636,AK,f,21,60.0066323621,Set,2017_12_15_1416,
"[3.0, 3.0]",6,0,10,10,29,,,,,3,0,3,0,down,0.108773158368,AK,f,21,60.0066323621,Set,2017_12_15_1416,
"[2.7, 2.7]",5,0,11,11,10,,,,,0,0,0,0,right,0.53355915047,AK,f,21,60.0066323621,Set,2017_12_15_1416,
"[2.7, 2.7]",5,0,11,11,10,,,,,1,0,1,0,down,0.358775724162,AK,f,21,60.0066323621,Set,2017_12_15_1416,
"[2.7, 2.7]",5,0,11,11,10,,,,,2,0,2,0,down,0.0588098296139,AK,f,21,60.0066323621,Set,2017_12_15_1416,
"[2.9, 2.9]",3,0,12,12,20,,,,,0,0,0,0,right,0.583556032041,AK,f,21,60.0066323621,Set,2017_12_15_1416,
"[2.9, 2.9]",3,0,12,12,20,,,,,1,0,1,0,down,0.358808487537,AK,f,21,60.0066323621,Set,2017_12_15_1416,
"[2.9, 2.9]",3,0,12,12,20,,,,,2,0,2,0,left,0.542258413654,AK,f,21,60.0066323621,Set,2017_12_15_1416,
"[2.9, 2.9]",3,0,12,12,20,,,,,3,0,3,0,left,0.258787487401,AK,f,21,60.0066323621,Set,2017_12_15_1416,
"[2.9, 2.9]",3,0,12,12,20,,,,,4,0,4,0,left,0.175460798841,AK,f,21,60.0066323621,Set,2017_12_15_1416,
"[2.9, 2.9]",3,0,12,12,20,,,,,5,0,5,0,left,0.192121557571,AK,f,21,60.0066323621,Set,2017_12_15_1416,
"[2.9, 2.9]",3,0,12,12,20,,,,,6,0,6,0,left,0.192133399745,AK,f,21,60.0066323621,Set,2017_12_15_1416,
"[2.9, 2.9]",3,0,12,12,20,,,,,7,0,7,0,down,0.12545089089,AK,f,21,60.0066323621,Set,2017_12_15_1416,
"[2.9, 2.9]",3,0,12,12,20,,,,,8,0,8,0,down,0.208635078598,AK,f,21,60.0066323621,Set,2017_12_15_1416,
"[2.9, 2.9]",1,0,13,13,18,,,,,0,0,0,0,right,0.742120412819,AK,f,21,60.0066323621,Set,2017_12_15_1416,
"[2.9, 2.9]",1,0,13,13,18,,,,,1,0,1,0,right,0.49208903109,AK,f,21,60.0066323621,Set,2017_12_15_1416,
"[2.9, 2.9]",1,0,13,13,18,,,,,2,0,2,0,down,0.108806711185,AK,f,21,60.0066323621,Set,2017_12_15_1416,
"[2.9, 2.9]",1,0,13,13,18,,,,,3,0,3,0,down,0.000257369974861,AK,f,21,60.0066323621,Set,2017_12_15_1416,
"[2.8, 2.8]",2,0,14,14,13,,,,,0,0,0,0,down,0.81691520763,AK,f,21,60.0066323621,Set,2017_12_15_1416,
"[2.8, 2.8]",2,0,14,14,13,,,,,1,0,1,0,down,0.158817803371,AK,f,21,60.0066323621,Set,2017_12_15_1416,
"[2.7, 2.7]",6,0,15,15,11,,,,,0,0,0,0,right,0.483545689873,AK,f,21,60.0066323621,Set,2017_12_15_1416,
"[2.7, 2.7]",6,0,15,15,11,,,,,1,0,1,0,left,0.408794316405,AK,f,21,60.0066323621,Set,2017_12_15_1416,
"[2.7, 2.7]",6,0,15,15,11,,,,,2,0,2,0,down,0.400229659281,AK,f,21,60.0066323621,Set,2017_12_15_1416,
"[2.7, 2.7]",6,0,15,15,11,,,,,3,0,3,0,down,0.108765263576,AK,f,21,60.0066323621,Set,2017_12_15_1416,
"[3.0, 3.0]",5,0,16,16,28,,,,,0,0,0,0,left,0.675466719927,AK,f,21,60.0066323621,Set,2017_12_15_1416,
"[3.0, 3.0]",5,0,16,16,28,,,,,1,0,1,0,down,0.342133912898,AK,f,21,60.0066323621,Set,2017_12_15_1416,
"[3.0, 3.0]",5,0,16,16,28,,,,,2,0,2,0,left,0.525475285773,AK,f,21,60.0066323621,Set,2017_12_15_1416,
"[3.0, 3.0]",5,0,16,16,28,,,,,3,0,3,0,down,0.25878432949,AK,f,21,60.0066323621,Set,2017_12_15_1416,
"[3.0, 3.0]",5,0,16,16,28,,,,,4,0,4,0,down,0.0921155575488,AK,f,21,60.0066323621,Set,2017_12_15_1416,
"[2.9, 2.9]",5,0,17,17,22,,,,,0,0,0,0,right,0.475449588237,AK,f,21,60.0066323621,Set,2017_12_15_1416,
"[2.9, 2.9]",5,0,17,17,22,,,,,1,0,1,0,down,0.242135412904,AK,f,21,60.0066323621,Set,2017_12_15_1416,
"[2.9, 2.9]",5,0,17,17,22,,,,,2,0,2,0,down,0.158781487378,AK,f,21,60.0066323621,Set,2017_12_15_1416,
"[2.9, 2.9]",6,0,18,18,23,,,,,0,0,0,0,right,0.47547524632,AK,f,21,60.0066323621,Set,2017_12_15_1416,
"[2.9, 2.9]",6,0,18,18,23,,,,,1,0,1,0,down,0.325499206956,AK,f,21,60.0066323621,Set,2017_12_15_1416,
"[2.9, 2.9]",6,0,18,18,23,,,,,2,0,2,0,left,0.175476588425,AK,f,21,60.0066323621,Set,2017_12_15_1416,
"[2.9, 2.9]",6,0,18,18,23,,,,,3,0,3,0,down,0.208772447833,AK,f,21,60.0066323621,Set,2017_12_15_1416,
"[2.9, 2.9]",6,0,18,18,23,,,,,4,0,4,0,down,0.108788553189,AK,f,21,60.0066323621,Set,2017_12_15_1416,
"[2.8, 2.8]",1,0,19,19,12,,,,,0,0,0,0,right,0.542136439239,AK,f,21,60.0066323621,Set,2017_12_15_1416,
"[2.8, 2.8]",1,0,19,19,12,,,,,1,0,1,0,down,0.225442680297,AK,f,21,60.0066323621,Set,2017_12_15_1416,
"[2.8, 2.8]",1,0,19,19,12,,,,,2,0,2,0,down,0.208801658533,AK,f,21,60.0066323621,Set,2017_12_15_1416,
"[2.7, 2.7]",4,0,20,20,9,,,,,0,0,0,0,left,0.45023561985,AK,f,21,60.0066323621,Set,2017_12_15_1416,
"[2.7, 2.7]",4,0,20,20,9,,,,,1,0,1,0,down,0.275469562039,AK,f,21,60.0066323621,Set,2017_12_15_1416,
"[2.7, 2.7]",4,0,20,20,9,,,,,2,0,2,0,left,0.225456101442,AK,f,21,60.0066323621,Set,2017_12_15_1416,
"[2.7, 2.7]",4,0,20,20,9,,,,,3,0,3,0,down,0.358801382215,AK,f,21,60.0066323621,Set,2017_12_15_1416,
"[2.7, 2.7]",4,0,20,20,9,,,,,4,0,4,0,down,0.442145439301,AK,f,21,60.0066323621,Set,2017_12_15_1416,
"[2.6, 2.6]",1,0,21,21,0,,,,,0,0,0,0,down,0.808620552183,AK,f,21,60.0066323621,Set,2017_12_15_1416,
"[2.6, 2.6]",1,0,21,21,0,,,,,1,0,1,0,left,0.375476351561,AK,f,21,60.0066323621,Set,2017_12_15_1416,
"[2.6, 2.6]",1,0,21,21,0,,,,,2,0,2,0,down,0.342128781311,AK,f,21,60.0066323621,Set,2017_12_15_1416,
"[2.6, 2.6]",1,0,21,21,0,,,,,3,0,3,0,left,0.442128860275,AK,f,21,60.0066323621,Set,2017_12_15_1416,
"[2.6, 2.6]",1,0,21,21,0,,,,,4,0,4,0,down,0.309678058577,AK,f,21,60.0066323621,Set,2017_12_15_1416,
"[2.6, 2.6]",1,0,21,21,0,,,,,5,0,5,0,down,0.275494825357,AK,f,21,60.0066323621,Set,2017_12_15_1416,
"[2.7, 2.7]",1,0,22,22,6,,,,,0,0,0,0,down,1.05876403989,AK,f,21,60.0066323621,Set,2017_12_15_1416,
"[2.7, 2.7]",1,0,22,22,6,,,,,1,0,1,0,left,0.408783658408,AK,f,21,60.0066323621,Set,2017_12_15_1416,
"[2.7, 2.7]",1,0,22,22,6,,,,,2,0,2,0,down,0.242233702971,AK,f,21,60.0066323621,Set,2017_12_15_1416,
"[2.7, 2.7]",1,0,22,22,6,,,,,3,0,3,0,down,0.192110110162,AK,f,21,60.0066323621,Set,2017_12_15_1416,
"[2.7, 2.7]",3,0,23,23,8,,,,,0,0,0,0,right,0.458801855915,AK,f,21,60.0066323621,Set,2017_12_15_1416,
"[2.7, 2.7]",3,0,23,23,8,,,,,1,0,1,0,down,0.325551312533,AK,f,21,60.0066323621,Set,2017_12_15_1416,
"[2.7, 2.7]",3,0,23,23,8,,,,,2,0,2,0,down,0.208817842824,AK,f,21,60.0066323621,Set,2017_12_15_1416,
"[2.6, 2.6]",5,0,24,24,4,,,,,0,0,0,0,down,1.04209854428,AK,f,21,60.0066323621,Set,2017_12_15_1416,
"[2.6, 2.6]",5,0,24,24,4,,,,,1,0,1,0,down,0.442098860047,AK,f,21,60.0066323621,Set,2017_12_15_1416,
"[3.0, 3.0]",4,0,25,25,27,,,,,0,0,0,0,right,0.500247896241,AK,f,21,60.0066323621,Set,2017_12_15_1416,
"[3.0, 3.0]",4,0,25,25,27,,,,,1,0,1,0,down,0.225448601384,AK,f,21,60.0066323621,Set,2017_12_15_1416,
"[3.0, 3.0]",4,0,25,25,27,,,,,2,0,2,0,down,0.108786974248,AK,f,21,60.0066323621,Set,2017_12_15_1416,
"[2.9, 2.9]",4,0,26,26,21,,,,,0,0,0,0,right,0.342123649694,AK,f,21,60.0066323621,Set,2017_12_15_1416,
"[2.9, 2.9]",4,0,26,26,21,,,,,1,0,1,0,down,0.10874631608,AK,f,21,60.0066323621,Set,2017_12_15_1416,
"[2.9, 2.9]",4,0,26,26,21,,,,,2,0,2,0,down,0.0921258207527,AK,f,21,60.0066323621,Set,2017_12_15_1416,
"[3.0, 3.0]",3,0,27,27,26,,,,,0,0,0,0,left,0.816846128291,AK,f,21,60.0066323621,Set,2017_12_15_1416,
"[3.0, 3.0]",3,0,27,27,26,,,,,1,0,1,0,left,0.392111452267,AK,f,21,60.0066323621,Set,2017_12_15_1416,
"[3.0, 3.0]",3,0,27,27,26,,,,,2,0,2,0,left,0.275495220092,AK,f,21,60.0066323621,Set,2017_12_15_1416,
"[3.0, 3.0]",3,0,27,27,26,,,,,3,0,3,0,down,0.175466719927,AK,f,21,60.0066323621,Set,2017_12_15_1416,
"[3.0, 3.0]",3,0,27,27,26,,,,,4,0,4,0,down,0.17547145678,AK,f,21,60.0066323621,Set,2017_12_15_1416,
"[2.6, 2.6]",4,0,28,28,3,,,,,0,0,0,0,down,0.375452272478,AK,f,21,60.0066323621,Set,2017_12_15_1416,
"[2.6, 2.6]",4,0,28,28,3,,,,,1,0,1,0,left,0.375457404065,AK,f,21,60.0066323621,Set,2017_12_15_1416,
"[2.6, 2.6]",4,0,28,28,3,,,,,2,0,2,0,down,0.342117333872,AK,f,21,60.0066323621,Set,2017_12_15_1416,
"[2.6, 2.6]",4,0,28,28,3,,,,,3,0,3,0,down,0.942119386513,AK,f,21,60.0066323621,Set,2017_12_15_1416,
"[2.8, 2.8]",4,0,29,29,15,,,,,0,0,0,0,left,0.583608137647,AK,f,21,60.0066323621,Set,2017_12_15_1416,
"[2.8, 2.8]",4,0,29,29,15,,,,,1,0,1,0,down,0.0754504566721,AK,f,21,60.0066323621,Set,2017_12_15_1416,
"[2.8, 2.8]",4,0,29,29,15,,,,,2,0,2,0,down,0.192132610275,AK,f,21,60.0066323621,Set,2017_12_15_1416,
