size,n,trials_2.thisRepN,trials_2.thisTrialN,trials_2.thisN,trials_2.thisIndex,trials.thisRepN,trials.thisTrialN,trials.thisN,trials.thisIndex,trials_3.thisRepN,trials_3.thisTrialN,trials_3.thisN,trials_3.thisIndex,answer.keys,answer.rt,participant,gender,age,frameRate,expName,date,
"[3.0, 3.0]",1,0,0,0,24,,,,,0,0,0,0,down,14.5586543024,AVD,f,18,59.9898648071,Set,2017_12_14_1858,
"[3.0, 3.0]",1,0,0,0,24,,,,,1,0,1,0,right,4.42543652238,AVD,f,18,59.9898648071,Set,2017_12_14_1858,
"[3.0, 3.0]",1,0,0,0,24,,,,,2,0,2,0,right,2.32545775935,AVD,f,18,59.9898648071,Set,2017_12_14_1858,
"[3.0, 3.0]",1,0,0,0,24,,,,,3,0,3,0,right,1.77544903561,AVD,f,18,59.9898648071,Set,2017_12_14_1858,
"[3.0, 3.0]",1,0,0,0,24,,,,,4,0,4,0,right,1.69211405754,AVD,f,18,59.9898648071,Set,2017_12_14_1858,
"[3.0, 3.0]",1,0,0,0,24,,,,,5,0,5,0,right,1.56689882596,AVD,f,18,59.9898648071,Set,2017_12_14_1858,
"[3.0, 3.0]",1,0,0,0,24,,,,,6,0,6,0,down,1.65876964519,AVD,f,18,59.9898648071,Set,2017_12_14_1858,
"[3.0, 3.0]",1,0,0,0,24,,,,,7,0,7,0,down,1.57553690457,AVD,f,18,59.9898648071,Set,2017_12_14_1858,
"[2.9, 2.9]",2,0,1,1,19,,,,,0,0,0,0,right,3.19213221554,AVD,f,18,59.9898648071,Set,2017_12_14_1858,
"[2.9, 2.9]",2,0,1,1,19,,,,,1,0,1,0,right,1.59208713632,AVD,f,18,59.9898648071,Set,2017_12_14_1858,
"[2.9, 2.9]",2,0,1,1,19,,,,,2,0,2,0,right,1.97528300829,AVD,f,18,59.9898648071,Set,2017_12_14_1858,
"[2.9, 2.9]",2,0,1,1,19,,,,,3,0,3,0,right,1.05879048742,AVD,f,18,59.9898648071,Set,2017_12_14_1858,
"[2.9, 2.9]",2,0,1,1,19,,,,,4,0,4,0,down,0.892131583954,AVD,f,18,59.9898648071,Set,2017_12_14_1858,
"[2.9, 2.9]",2,0,1,1,19,,,,,5,0,5,0,right,1.19210261009,AVD,f,18,59.9898648071,Set,2017_12_14_1858,
"[2.9, 2.9]",2,0,1,1,19,,,,,6,0,6,0,right,1.34211496543,AVD,f,18,59.9898648071,Set,2017_12_14_1858,
"[2.9, 2.9]",2,0,1,1,19,,,,,7,0,7,0,right,0.842155228835,AVD,f,18,59.9898648071,Set,2017_12_14_1858,
"[2.9, 2.9]",2,0,1,1,19,,,,,8,0,8,0,right,1.0087880795,AVD,f,18,59.9898648071,Set,2017_12_14_1858,
"[2.9, 2.9]",2,0,1,1,19,,,,,9,0,9,0,down,0.94210438642,AVD,f,18,59.9898648071,Set,2017_12_14_1858,
"[2.9, 2.9]",2,0,1,1,19,,,,,10,0,10,0,right,0.908774974159,AVD,f,18,59.9898648071,Set,2017_12_14_1858,
"[2.9, 2.9]",2,0,1,1,19,,,,,11,0,11,0,down,1.19211997862,AVD,f,18,59.9898648071,Set,2017_12_14_1858,
"[2.9, 2.9]",2,0,1,1,19,,,,,12,0,12,0,right,0.842180097403,AVD,f,18,59.9898648071,Set,2017_12_14_1858,
"[2.9, 2.9]",2,0,1,1,19,,,,,13,0,13,0,right,0.792137820834,AVD,f,18,59.9898648071,Set,2017_12_14_1858,
"[2.9, 2.9]",2,0,1,1,19,,,,,14,0,14,0,right,0.883561005765,AVD,f,18,59.9898648071,Set,2017_12_14_1858,
"[2.9, 2.9]",2,0,1,1,19,,,,,15,0,15,0,down,0.692136557671,AVD,f,18,59.9898648071,Set,2017_12_14_1858,
"[2.9, 2.9]",2,0,1,1,19,,,,,16,0,16,0,down,0.908825895531,AVD,f,18,59.9898648071,Set,2017_12_14_1858,
"[2.7, 2.7]",1,0,2,2,6,,,,,0,0,0,0,right,1.55025464628,AVD,f,18,59.9898648071,Set,2017_12_14_1858,
"[2.7, 2.7]",1,0,2,2,6,,,,,1,0,1,0,right,0.99213442608,AVD,f,18,59.9898648071,Set,2017_12_14_1858,
"[2.7, 2.7]",1,0,2,2,6,,,,,2,0,2,0,down,1.84212049178,AVD,f,18,59.9898648071,Set,2017_12_14_1858,
"[2.7, 2.7]",1,0,2,2,6,,,,,3,0,3,0,down,0.658784645275,AVD,f,18,59.9898648071,Set,2017_12_14_1858,
"[2.6, 2.6]",2,0,3,3,1,,,,,0,0,0,0,right,1.16690008913,AVD,f,18,59.9898648071,Set,2017_12_14_1858,
"[2.6, 2.6]",2,0,3,3,1,,,,,1,0,1,0,right,0.875465298872,AVD,f,18,59.9898648071,Set,2017_12_14_1858,
"[2.6, 2.6]",2,0,3,3,1,,,,,2,0,2,0,right,0.758770118875,AVD,f,18,59.9898648071,Set,2017_12_14_1858,
"[2.6, 2.6]",2,0,3,3,1,,,,,3,0,3,0,right,0.983592663855,AVD,f,18,59.9898648071,Set,2017_12_14_1858,
"[2.6, 2.6]",2,0,3,3,1,,,,,4,0,4,0,down,0.758834461369,AVD,f,18,59.9898648071,Set,2017_12_14_1858,
"[2.6, 2.6]",2,0,3,3,1,,,,,5,0,5,0,right,0.642128623411,AVD,f,18,59.9898648071,Set,2017_12_14_1858,
"[2.6, 2.6]",2,0,3,3,1,,,,,6,0,6,0,down,0.675483693718,AVD,f,18,59.9898648071,Set,2017_12_14_1858,
"[2.6, 2.6]",2,0,3,3,1,,,,,7,0,7,0,right,1.27543048286,AVD,f,18,59.9898648071,Set,2017_12_14_1858,
"[2.6, 2.6]",2,0,3,3,1,,,,,8,0,8,0,down,0.758798934839,AVD,f,18,59.9898648071,Set,2017_12_14_1858,
"[2.6, 2.6]",2,0,3,3,1,,,,,9,0,9,0,down,0.675514483373,AVD,f,18,59.9898648071,Set,2017_12_14_1858,
"[2.8, 2.8]",5,0,4,4,16,,,,,0,0,0,0,right,1.09219805804,AVD,f,18,59.9898648071,Set,2017_12_14_1858,
"[2.8, 2.8]",5,0,4,4,16,,,,,1,0,1,0,right,1.0587691715,AVD,f,18,59.9898648071,Set,2017_12_14_1858,
"[2.8, 2.8]",5,0,4,4,16,,,,,2,0,2,0,right,0.575366771955,AVD,f,18,59.9898648071,Set,2017_12_14_1858,
"[2.8, 2.8]",5,0,4,4,16,,,,,3,0,3,0,left,0.892167505226,AVD,f,18,59.9898648071,Set,2017_12_14_1858,
"[2.8, 2.8]",5,0,4,4,16,,,,,4,0,4,0,down,0.942173071046,AVD,f,18,59.9898648071,Set,2017_12_14_1858,
"[2.8, 2.8]",5,0,4,4,16,,,,,5,0,5,0,down,0.592127399716,AVD,f,18,59.9898648071,Set,2017_12_14_1858,
"[2.6, 2.6]",4,0,5,5,3,,,,,0,0,0,0,right,1.28357592691,AVD,f,18,59.9898648071,Set,2017_12_14_1858,
"[2.6, 2.6]",4,0,5,5,3,,,,,1,0,1,0,down,0.692112083838,AVD,f,18,59.9898648071,Set,2017_12_14_1858,
"[2.6, 2.6]",4,0,5,5,3,,,,,2,0,2,0,down,0.458790013727,AVD,f,18,59.9898648071,Set,2017_12_14_1858,
"[3.0, 3.0]",5,0,6,6,28,,,,,0,0,0,0,right,1.07546387781,AVD,f,18,59.9898648071,Set,2017_12_14_1858,
"[3.0, 3.0]",5,0,6,6,28,,,,,1,0,1,0,down,0.708797711144,AVD,f,18,59.9898648071,Set,2017_12_14_1858,
"[3.0, 3.0]",5,0,6,6,28,,,,,2,0,2,0,down,0.592150294593,AVD,f,18,59.9898648071,Set,2017_12_14_1858,
"[2.9, 2.9]",6,0,7,7,23,,,,,0,0,0,0,down,4.29212518918,AVD,f,18,59.9898648071,Set,2017_12_14_1858,
"[2.9, 2.9]",6,0,7,7,23,,,,,1,0,1,0,down,0.725406364305,AVD,f,18,59.9898648071,Set,2017_12_14_1858,
"[3.0, 3.0]",6,0,8,8,29,,,,,0,0,0,0,right,102.915860543,AVD,f,18,59.9898648071,Set,2017_12_14_1858,
"[3.0, 3.0]",6,0,8,8,29,,,,,1,0,1,0,down,0.875401351113,AVD,f,18,59.9898648071,Set,2017_12_14_1858,
"[3.0, 3.0]",6,0,8,8,29,,,,,2,0,2,0,down,0.492131268162,AVD,f,18,59.9898648071,Set,2017_12_14_1858,
"[3.0, 3.0]",6,0,8,8,29,,,,,3,0,3,0,right,0.633650808937,AVD,f,18,59.9898648071,Set,2017_12_14_1858,
"[3.0, 3.0]",6,0,8,8,29,,,,,4,0,4,0,right,0.442130044474,AVD,f,18,59.9898648071,Set,2017_12_14_1858,
"[3.0, 3.0]",6,0,8,8,29,,,,,5,0,5,0,down,0.62545089089,AVD,f,18,59.9898648071,Set,2017_12_14_1858,
"[3.0, 3.0]",6,0,8,8,29,,,,,6,0,6,0,down,0.475479983164,AVD,f,18,59.9898648071,Set,2017_12_14_1858,
"[2.9, 2.9]",4,0,9,9,21,,,,,0,0,0,0,right,1.0835726111,AVD,f,18,59.9898648071,Set,2017_12_14_1858,
"[2.9, 2.9]",4,0,9,9,21,,,,,1,0,1,0,down,0.658781882106,AVD,f,18,59.9898648071,Set,2017_12_14_1858,
"[2.9, 2.9]",4,0,9,9,21,,,,,2,0,2,0,down,0.342166676273,AVD,f,18,59.9898648071,Set,2017_12_14_1858,
"[2.8, 2.8]",4,0,10,10,15,,,,,0,0,0,0,down,0.825365785109,AVD,f,18,59.9898648071,Set,2017_12_14_1858,
"[2.8, 2.8]",4,0,10,10,15,,,,,1,0,1,0,down,1.00027276481,AVD,f,18,59.9898648071,Set,2017_12_14_1858,
"[3.0, 3.0]",2,0,11,11,25,,,,,0,0,0,0,right,1.18353361086,AVD,f,18,59.9898648071,Set,2017_12_14_1858,
"[3.0, 3.0]",2,0,11,11,25,,,,,1,0,1,0,down,0.475472088387,AVD,f,18,59.9898648071,Set,2017_12_14_1858,
"[3.0, 3.0]",2,0,11,11,25,,,,,2,0,2,0,down,0.425485470041,AVD,f,18,59.9898648071,Set,2017_12_14_1858,
"[2.6, 2.6]",5,0,12,12,4,,,,,0,0,0,0,down,1.00885636939,AVD,f,18,59.9898648071,Set,2017_12_14_1858,
"[2.6, 2.6]",5,0,12,12,4,,,,,1,0,1,0,down,0.692142478758,AVD,f,18,59.9898648071,Set,2017_12_14_1858,
"[2.6, 2.6]",3,0,13,13,2,,,,,0,0,0,0,down,1.39195671448,AVD,f,18,59.9898648071,Set,2017_12_14_1858,
"[2.6, 2.6]",3,0,13,13,2,,,,,1,0,1,0,down,0.608785395278,AVD,f,18,59.9898648071,Set,2017_12_14_1858,
"[2.9, 2.9]",1,0,14,14,18,,,,,0,0,0,0,down,1.50879715851,AVD,f,18,59.9898648071,Set,2017_12_14_1858,
"[2.9, 2.9]",1,0,14,14,18,,,,,1,0,1,0,down,1.5754457198,AVD,f,18,59.9898648071,Set,2017_12_14_1858,
"[2.7, 2.7]",4,0,15,15,9,,,,,0,0,0,0,down,1.08370958561,AVD,f,18,59.9898648071,Set,2017_12_14_1858,
"[2.7, 2.7]",4,0,15,15,9,,,,,1,0,1,0,down,1.59214437351,AVD,f,18,59.9898648071,Set,2017_12_14_1858,
"[2.9, 2.9]",5,0,16,16,22,,,,,0,0,0,0,down,1.08360616393,AVD,f,18,59.9898648071,Set,2017_12_14_1858,
"[2.9, 2.9]",5,0,16,16,22,,,,,1,0,1,0,down,0.558809829636,AVD,f,18,59.9898648071,Set,2017_12_14_1858,
"[2.6, 2.6]",1,0,17,17,0,,,,,0,0,0,0,down,0.791975583008,AVD,f,18,59.9898648071,Set,2017_12_14_1858,
"[2.6, 2.6]",1,0,17,17,0,,,,,1,0,1,0,down,0.558806276989,AVD,f,18,59.9898648071,Set,2017_12_14_1858,
"[2.7, 2.7]",2,0,18,18,7,,,,,0,0,0,0,down,1.10025784367,AVD,f,18,59.9898648071,Set,2017_12_14_1858,
"[2.7, 2.7]",2,0,18,18,7,,,,,1,0,1,0,down,0.375441614517,AVD,f,18,59.9898648071,Set,2017_12_14_1858,
"[3.0, 3.0]",3,0,19,19,26,,,,,0,0,0,0,right,0.683577426913,AVD,f,18,59.9898648071,Set,2017_12_14_1858,
"[3.0, 3.0]",3,0,19,19,26,,,,,1,0,1,0,down,0.692146820889,AVD,f,18,59.9898648071,Set,2017_12_14_1858,
"[3.0, 3.0]",3,0,19,19,26,,,,,2,0,2,0,down,1.00880584277,AVD,f,18,59.9898648071,Set,2017_12_14_1858,
"[2.6, 2.6]",6,0,20,20,5,,,,,0,0,0,0,down,0.842075096771,AVD,f,18,59.9898648071,Set,2017_12_14_1858,
"[2.6, 2.6]",6,0,20,20,5,,,,,1,0,1,0,down,0.525432653936,AVD,f,18,59.9898648071,Set,2017_12_14_1858,
"[2.8, 2.8]",2,0,21,21,13,,,,,0,0,0,0,down,0.816915207644,AVD,f,18,59.9898648071,Set,2017_12_14_1858,
"[2.8, 2.8]",2,0,21,21,13,,,,,1,0,1,0,down,0.492153373561,AVD,f,18,59.9898648071,Set,2017_12_14_1858,
"[2.8, 2.8]",3,0,22,22,14,,,,,0,0,0,0,right,0.408811684916,AVD,f,18,59.9898648071,Set,2017_12_14_1858,
"[2.8, 2.8]",3,0,22,22,14,,,,,1,0,1,0,down,0.408827869222,AVD,f,18,59.9898648071,Set,2017_12_14_1858,
"[2.8, 2.8]",3,0,22,22,14,,,,,2,0,2,0,down,0.408620631126,AVD,f,18,59.9898648071,Set,2017_12_14_1858,
"[2.9, 2.9]",3,0,23,23,20,,,,,0,0,0,0,down,3.16673390392,AVD,f,18,59.9898648071,Set,2017_12_14_1858,
"[2.9, 2.9]",3,0,23,23,20,,,,,1,0,1,0,down,0.575443746107,AVD,f,18,59.9898648071,Set,2017_12_14_1858,
"[2.8, 2.8]",1,0,24,24,12,,,,,0,0,0,0,down,0.475453535641,AVD,f,18,59.9898648071,Set,2017_12_14_1858,
"[2.8, 2.8]",1,0,24,24,12,,,,,1,0,1,0,down,0.625491943763,AVD,f,18,59.9898648071,Set,2017_12_14_1858,
"[2.8, 2.8]",1,0,24,24,12,,,,,2,0,2,0,left,2.14209428109,AVD,f,18,59.9898648071,Set,2017_12_14_1858,
"[2.8, 2.8]",1,0,24,24,12,,,,,3,0,3,0,down,0.908801421698,AVD,f,18,59.9898648071,Set,2017_12_14_1858,
"[2.8, 2.8]",1,0,24,24,12,,,,,4,0,4,0,down,0.69211839966,AVD,f,18,59.9898648071,Set,2017_12_14_1858,
"[2.8, 2.8]",1,0,24,24,12,,,,,5,0,5,0,left,0.992128899721,AVD,f,18,59.9898648071,Set,2017_12_14_1858,
"[2.8, 2.8]",1,0,24,24,12,,,,,6,0,6,0,left,0.683565584739,AVD,f,18,59.9898648071,Set,2017_12_14_1858,
"[2.8, 2.8]",1,0,24,24,12,,,,,7,0,7,0,left,0.692135373451,AVD,f,18,59.9898648071,Set,2017_12_14_1858,
"[2.8, 2.8]",1,0,24,24,12,,,,,8,0,8,0,down,0.508807421727,AVD,f,18,59.9898648071,Set,2017_12_14_1858,
"[2.8, 2.8]",1,0,24,24,12,,,,,9,0,9,0,down,0.525465812032,AVD,f,18,59.9898648071,Set,2017_12_14_1858,
"[2.8, 2.8]",6,0,25,25,17,,,,,0,0,0,0,right,1.09198095146,AVD,f,18,59.9898648071,Set,2017_12_14_1858,
"[2.8, 2.8]",6,0,25,25,17,,,,,1,0,1,0,down,0.608818948116,AVD,f,18,59.9898648071,Set,2017_12_14_1858,
"[2.8, 2.8]",6,0,25,25,17,,,,,2,0,2,0,down,0.475502483307,AVD,f,18,59.9898648071,Set,2017_12_14_1858,
"[2.7, 2.7]",6,0,26,26,11,,,,,0,0,0,0,down,1.15880675067,AVD,f,18,59.9898648071,Set,2017_12_14_1858,
"[2.7, 2.7]",6,0,26,26,11,,,,,1,0,1,0,down,0.408765105683,AVD,f,18,59.9898648071,Set,2017_12_14_1858,
"[2.7, 2.7]",5,0,27,27,10,,,,,0,0,0,0,down,0.450239172496,AVD,f,18,59.9898648071,Set,2017_12_14_1858,
"[2.7, 2.7]",5,0,27,27,10,,,,,1,0,1,0,left,0.775521667631,AVD,f,18,59.9898648071,Set,2017_12_14_1858,
"[2.7, 2.7]",5,0,27,27,10,,,,,2,0,2,0,down,0.625475364723,AVD,f,18,59.9898648071,Set,2017_12_14_1858,
"[2.7, 2.7]",5,0,27,27,10,,,,,3,0,3,0,left,0.342116544387,AVD,f,18,59.9898648071,Set,2017_12_14_1858,
"[2.7, 2.7]",5,0,27,27,10,,,,,4,0,4,0,left,0.525461075165,AVD,f,18,59.9898648071,Set,2017_12_14_1858,
"[2.7, 2.7]",5,0,27,27,10,,,,,5,0,5,0,left,0.608774342581,AVD,f,18,59.9898648071,Set,2017_12_14_1858,
"[2.7, 2.7]",5,0,27,27,10,,,,,6,0,6,0,left,0.475463798859,AVD,f,18,59.9898648071,Set,2017_12_14_1858,
"[2.7, 2.7]",5,0,27,27,10,,,,,7,0,7,0,down,0.742120807568,AVD,f,18,59.9898648071,Set,2017_12_14_1858,
"[2.7, 2.7]",5,0,27,27,10,,,,,8,0,8,0,left,0.642166913116,AVD,f,18,59.9898648071,Set,2017_12_14_1858,
"[2.7, 2.7]",5,0,27,27,10,,,,,9,0,9,0,down,1.02546423307,AVD,f,18,59.9898648071,Set,2017_12_14_1858,
"[2.7, 2.7]",5,0,27,27,10,,,,,10,0,10,0,left,0.958807776995,AVD,f,18,59.9898648071,Set,2017_12_14_1858,
"[2.7, 2.7]",5,0,27,27,10,,,,,11,0,11,0,left,0.725425311786,AVD,f,18,59.9898648071,Set,2017_12_14_1858,
"[2.7, 2.7]",5,0,27,27,10,,,,,12,0,12,0,left,0.700230290866,AVD,f,18,59.9898648071,Set,2017_12_14_1858,
"[2.7, 2.7]",5,0,27,27,10,,,,,13,0,13,0,left,0.675521193945,AVD,f,18,59.9898648071,Set,2017_12_14_1858,
"[2.7, 2.7]",5,0,27,27,10,,,,,14,0,14,0,left,0.742123570752,AVD,f,18,59.9898648071,Set,2017_12_14_1858,
"[2.7, 2.7]",5,0,27,27,10,,,,,15,0,15,0,down,0.542144728766,AVD,f,18,59.9898648071,Set,2017_12_14_1858,
"[2.7, 2.7]",5,0,27,27,10,,,,,16,0,16,0,down,0.742141728755,AVD,f,18,59.9898648071,Set,2017_12_14_1858,
"[2.7, 2.7]",3,0,28,28,8,,,,,0,0,0,0,down,0.533604940247,AVD,f,18,59.9898648071,Set,2017_12_14_1858,
"[2.7, 2.7]",3,0,28,28,8,,,,,1,0,1,0,down,0.375481483177,AVD,f,18,59.9898648071,Set,2017_12_14_1858,
"[3.0, 3.0]",4,0,29,29,27,,,,,0,0,0,0,down,0.433567361062,AVD,f,18,59.9898648071,Set,2017_12_14_1858,
"[3.0, 3.0]",4,0,29,29,27,,,,,1,0,1,0,down,0.308789500566,AVD,f,18,59.9898648071,Set,2017_12_14_1858,
