size,n,trials_2.thisRepN,trials_2.thisTrialN,trials_2.thisN,trials_2.thisIndex,trials.thisRepN,trials.thisTrialN,trials.thisN,trials.thisIndex,trials_3.thisRepN,trials_3.thisTrialN,trials_3.thisN,trials_3.thisIndex,answer.keys,answer.rt,participant,gender,age,frameRate,expName,date,
"[2.8, 2.8]",6,0,0,0,17,,,,,0,0,0,0,left,5.70019713277,Dim,m,21,60.003647613,Set,2017_12_14_1804,
"[2.8, 2.8]",6,0,0,0,17,,,,,1,0,1,0,down,5.40874300029,Dim,m,21,60.003647613,Set,2017_12_14_1804,
"[2.8, 2.8]",6,0,0,0,17,,,,,2,0,2,0,down,1.5254231802,Dim,m,21,60.003647613,Set,2017_12_14_1804,
"[2.8, 2.8]",6,0,0,0,17,,,,,3,0,3,0,left,1.74210462327,Dim,m,21,60.003647613,Set,2017_12_14_1804,
"[2.8, 2.8]",6,0,0,0,17,,,,,4,0,4,0,left,1.64213730767,Dim,m,21,60.003647613,Set,2017_12_14_1804,
"[2.8, 2.8]",6,0,0,0,17,,,,,5,0,5,0,down,1.05881614547,Dim,m,21,60.003647613,Set,2017_12_14_1804,
"[2.8, 2.8]",6,0,0,0,17,,,,,6,0,6,0,right,1.52542436441,Dim,m,21,60.003647613,Set,2017_12_14_1804,
"[2.8, 2.8]",6,0,0,0,17,,,,,7,0,7,0,down,1.27530614001,Dim,m,21,60.003647613,Set,2017_12_14_1804,
"[2.8, 2.8]",6,0,0,0,17,,,,,8,0,8,0,down,0.975426693374,Dim,m,21,60.003647613,Set,2017_12_14_1804,
"[2.7, 2.7]",2,0,1,1,7,,,,,0,0,0,0,down,1.01690470758,Dim,m,21,60.003647613,Set,2017_12_14_1804,
"[2.7, 2.7]",2,0,1,1,7,,,,,1,0,1,0,down,1.15862161797,Dim,m,21,60.003647613,Set,2017_12_14_1804,
"[2.9, 2.9]",3,0,2,2,20,,,,,0,0,0,0,left,0.916913707639,Dim,m,21,60.003647613,Set,2017_12_14_1804,
"[2.9, 2.9]",3,0,2,2,20,,,,,1,0,1,0,down,0.908779711033,Dim,m,21,60.003647613,Set,2017_12_14_1804,
"[2.9, 2.9]",3,0,2,2,20,,,,,2,0,2,0,down,0.90876905308,Dim,m,21,60.003647613,Set,2017_12_14_1804,
"[2.9, 2.9]",3,0,2,2,20,,,,,3,0,3,0,left,0.975437351335,Dim,m,21,60.003647613,Set,2017_12_14_1804,
"[2.9, 2.9]",3,0,2,2,20,,,,,4,0,4,0,down,0.925464548869,Dim,m,21,60.003647613,Set,2017_12_14_1804,
"[2.9, 2.9]",3,0,2,2,20,,,,,5,0,5,0,down,0.825447890864,Dim,m,21,60.003647613,Set,2017_12_14_1804,
"[2.9, 2.9]",6,0,3,3,23,,,,,0,0,0,0,left,1.06689172066,Dim,m,21,60.003647613,Set,2017_12_14_1804,
"[2.9, 2.9]",6,0,3,3,23,,,,,1,0,1,0,left,1.00877268468,Dim,m,21,60.003647613,Set,2017_12_14_1804,
"[2.9, 2.9]",6,0,3,3,23,,,,,2,0,2,0,left,0.842115754909,Dim,m,21,60.003647613,Set,2017_12_14_1804,
"[2.9, 2.9]",6,0,3,3,23,,,,,3,0,3,0,left,0.808793447963,Dim,m,21,60.003647613,Set,2017_12_14_1804,
"[2.9, 2.9]",6,0,3,3,23,,,,,4,0,4,0,down,0.87544516717,Dim,m,21,60.003647613,Set,2017_12_14_1804,
"[2.9, 2.9]",6,0,3,3,23,,,,,5,0,5,0,left,0.75874011869,Dim,m,21,60.003647613,Set,2017_12_14_1804,
"[2.9, 2.9]",6,0,3,3,23,,,,,6,0,6,0,down,0.692101820619,Dim,m,21,60.003647613,Set,2017_12_14_1804,
"[2.9, 2.9]",6,0,3,3,23,,,,,7,0,7,0,left,0.642115991759,Dim,m,21,60.003647613,Set,2017_12_14_1804,
"[2.9, 2.9]",6,0,3,3,23,,,,,8,0,8,0,down,0.708794553226,Dim,m,21,60.003647613,Set,2017_12_14_1804,
"[2.9, 2.9]",6,0,3,3,23,,,,,9,0,9,0,left,0.725747813733,Dim,m,21,60.003647613,Set,2017_12_14_1804,
"[2.9, 2.9]",6,0,3,3,23,,,,,10,0,10,0,down,0.808727131771,Dim,m,21,60.003647613,Set,2017_12_14_1804,
"[2.9, 2.9]",6,0,3,3,23,,,,,11,0,11,0,left,1.34209996535,Dim,m,21,60.003647613,Set,2017_12_14_1804,
"[2.9, 2.9]",6,0,3,3,23,,,,,12,0,12,0,down,0.558769960982,Dim,m,21,60.003647613,Set,2017_12_14_1804,
"[2.9, 2.9]",6,0,3,3,23,,,,,13,0,13,0,down,0.675443825057,Dim,m,21,60.003647613,Set,2017_12_14_1804,
"[3.0, 3.0]",4,0,4,4,27,,,,,0,0,0,0,left,1.01685181253,Dim,m,21,60.003647613,Set,2017_12_14_1804,
"[3.0, 3.0]",4,0,4,4,27,,,,,1,0,1,0,left,0.675503035942,Dim,m,21,60.003647613,Set,2017_12_14_1804,
"[3.0, 3.0]",4,0,4,4,27,,,,,2,0,2,0,down,0.375451088257,Dim,m,21,60.003647613,Set,2017_12_14_1804,
"[3.0, 3.0]",4,0,4,4,27,,,,,3,0,3,0,down,0.358768224127,Dim,m,21,60.003647613,Set,2017_12_14_1804,
"[2.7, 2.7]",5,0,5,5,10,,,,,0,0,0,0,left,0.95879238216,Dim,m,21,60.003647613,Set,2017_12_14_1804,
"[2.7, 2.7]",5,0,5,5,10,,,,,1,0,1,0,left,0.6088138165,Dim,m,21,60.003647613,Set,2017_12_14_1804,
"[2.7, 2.7]",5,0,5,5,10,,,,,2,0,2,0,left,0.433572887414,Dim,m,21,60.003647613,Set,2017_12_14_1804,
"[2.7, 2.7]",5,0,5,5,10,,,,,3,0,3,0,down,0.625453259323,Dim,m,21,60.003647613,Set,2017_12_14_1804,
"[2.7, 2.7]",5,0,5,5,10,,,,,4,0,4,0,down,0.842134702398,Dim,m,21,60.003647613,Set,2017_12_14_1804,
"[2.7, 2.7]",5,0,5,5,10,,,,,5,0,5,0,left,0.508787684768,Dim,m,21,60.003647613,Set,2017_12_14_1804,
"[2.7, 2.7]",5,0,5,5,10,,,,,6,0,6,0,down,0.658789776884,Dim,m,21,60.003647613,Set,2017_12_14_1804,
"[2.7, 2.7]",5,0,5,5,10,,,,,7,0,7,0,left,0.642102965357,Dim,m,21,60.003647613,Set,2017_12_14_1804,
"[2.7, 2.7]",5,0,5,5,10,,,,,8,0,8,0,down,0.658781882099,Dim,m,21,60.003647613,Set,2017_12_14_1804,
"[2.7, 2.7]",5,0,5,5,10,,,,,9,0,9,0,down,0.592149505115,Dim,m,21,60.003647613,Set,2017_12_14_1804,
"[2.7, 2.7]",4,0,6,6,9,,,,,0,0,0,0,down,1.3420040437,Dim,m,21,60.003647613,Set,2017_12_14_1804,
"[2.7, 2.7]",4,0,6,6,9,,,,,1,0,1,0,left,0.683514663382,Dim,m,21,60.003647613,Set,2017_12_14_1804,
"[2.7, 2.7]",4,0,6,6,9,,,,,2,0,2,0,left,0.542118675985,Dim,m,21,60.003647613,Set,2017_12_14_1804,
"[2.7, 2.7]",4,0,6,6,9,,,,,3,0,3,0,left,0.508631762772,Dim,m,21,60.003647613,Set,2017_12_14_1804,
"[2.7, 2.7]",4,0,6,6,9,,,,,4,0,4,0,down,0.608782237367,Dim,m,21,60.003647613,Set,2017_12_14_1804,
"[2.7, 2.7]",4,0,6,6,9,,,,,5,0,5,0,down,0.892127636565,Dim,m,21,60.003647613,Set,2017_12_14_1804,
"[2.7, 2.7]",4,0,6,6,9,,,,,6,0,6,0,left,0.492116662812,Dim,m,21,60.003647613,Set,2017_12_14_1804,
"[2.7, 2.7]",4,0,6,6,9,,,,,7,0,7,0,left,0.442135176083,Dim,m,21,60.003647613,Set,2017_12_14_1804,
"[2.7, 2.7]",4,0,6,6,9,,,,,8,0,8,0,down,1.00878215842,Dim,m,21,60.003647613,Set,2017_12_14_1804,
"[2.7, 2.7]",4,0,6,6,9,,,,,9,0,9,0,left,0.608798421672,Dim,m,21,60.003647613,Set,2017_12_14_1804,
"[2.7, 2.7]",4,0,6,6,9,,,,,10,0,10,0,left,0.458791197947,Dim,m,21,60.003647613,Set,2017_12_14_1804,
"[2.7, 2.7]",4,0,6,6,9,,,,,11,0,11,0,down,0.44211899177,Dim,m,21,60.003647613,Set,2017_12_14_1804,
"[2.7, 2.7]",4,0,6,6,9,,,,,12,0,12,0,down,0.54213486029,Dim,m,21,60.003647613,Set,2017_12_14_1804,
"[2.7, 2.7]",4,0,6,6,9,,,,,13,0,13,0,left,0.492130478684,Dim,m,21,60.003647613,Set,2017_12_14_1804,
"[2.7, 2.7]",4,0,6,6,9,,,,,14,0,14,0,down,0.616967944807,Dim,m,21,60.003647613,Set,2017_12_14_1804,
"[2.7, 2.7]",4,0,6,6,9,,,,,15,0,15,0,down,0.642121518104,Dim,m,21,60.003647613,Set,2017_12_14_1804,
"[2.7, 2.7]",4,0,6,6,9,,,,,16,0,16,0,left,0.675442640837,Dim,m,21,60.003647613,Set,2017_12_14_1804,
"[2.7, 2.7]",4,0,6,6,9,,,,,17,0,17,0,down,0.62544339084,Dim,m,21,60.003647613,Set,2017_12_14_1804,
"[2.7, 2.7]",4,0,6,6,9,,,,,18,0,18,0,down,0.575460325155,Dim,m,21,60.003647613,Set,2017_12_14_1804,
"[2.7, 2.7]",6,0,7,7,11,,,,,0,0,0,0,left,0.8502355409,Dim,m,21,60.003647613,Set,2017_12_14_1804,
"[2.7, 2.7]",6,0,7,7,11,,,,,1,0,1,0,down,0.658796882191,Dim,m,21,60.003647613,Set,2017_12_14_1804,
"[2.7, 2.7]",6,0,7,7,11,,,,,2,0,2,0,down,0.87547437787,Dim,m,21,60.003647613,Set,2017_12_14_1804,
"[2.8, 2.8]",3,0,8,8,14,,,,,0,0,0,0,left,0.93356104524,Dim,m,21,60.003647613,Set,2017_12_14_1804,
"[2.8, 2.8]",3,0,8,8,14,,,,,1,0,1,0,down,0.575491509553,Dim,m,21,60.003647613,Set,2017_12_14_1804,
"[2.8, 2.8]",3,0,8,8,14,,,,,2,0,2,0,down,0.558790882154,Dim,m,21,60.003647613,Set,2017_12_14_1804,
"[2.8, 2.8]",3,0,8,8,14,,,,,3,0,3,0,left,0.558723776485,Dim,m,21,60.003647613,Set,2017_12_14_1804,
"[2.8, 2.8]",3,0,8,8,14,,,,,4,0,4,0,left,0.641950596015,Dim,m,21,60.003647613,Set,2017_12_14_1804,
"[2.8, 2.8]",3,0,8,8,14,,,,,5,0,5,0,left,0.47546695677,Dim,m,21,60.003647613,Set,2017_12_14_1804,
"[2.8, 2.8]",3,0,8,8,14,,,,,6,0,6,0,down,0.408810500696,Dim,m,21,60.003647613,Set,2017_12_14_1804,
"[2.8, 2.8]",3,0,8,8,14,,,,,7,0,7,0,down,0.508833869259,Dim,m,21,60.003647613,Set,2017_12_14_1804,
"[3.0, 3.0]",5,0,9,9,28,,,,,0,0,0,0,left,0.658749513481,Dim,m,21,60.003647613,Set,2017_12_14_1804,
"[3.0, 3.0]",5,0,9,9,28,,,,,1,0,1,0,down,0.825457759347,Dim,m,21,60.003647613,Set,2017_12_14_1804,
"[3.0, 3.0]",5,0,9,9,28,,,,,2,0,2,0,left,0.783571979511,Dim,m,21,60.003647613,Set,2017_12_14_1804,
"[3.0, 3.0]",5,0,9,9,28,,,,,3,0,3,0,down,0.592110031197,Dim,m,21,60.003647613,Set,2017_12_14_1804,
"[3.0, 3.0]",5,0,9,9,28,,,,,4,0,4,0,down,0.575459930413,Dim,m,21,60.003647613,Set,2017_12_14_1804,
"[2.6, 2.6]",6,0,10,10,5,,,,,0,0,0,0,down,0.542131702372,Dim,m,21,60.003647613,Set,2017_12_14_1804,
"[2.6, 2.6]",6,0,10,10,5,,,,,1,0,1,0,down,0.425463364649,Dim,m,21,60.003647613,Set,2017_12_14_1804,
"[2.7, 2.7]",3,0,11,11,8,,,,,0,0,0,0,down,0.550246751496,Dim,m,21,60.003647613,Set,2017_12_14_1804,
"[2.7, 2.7]",3,0,11,11,8,,,,,1,0,1,0,down,0.42544323294,Dim,m,21,60.003647613,Set,2017_12_14_1804,
"[2.8, 2.8]",5,0,12,12,16,,,,,0,0,0,0,down,0.708783105794,Dim,m,21,60.003647613,Set,2017_12_14_1804,
"[2.8, 2.8]",5,0,12,12,16,,,,,1,0,1,0,down,0.375434903945,Dim,m,21,60.003647613,Set,2017_12_14_1804,
"[3.0, 3.0]",2,0,13,13,25,,,,,0,0,0,0,left,0.942096491635,Dim,m,21,60.003647613,Set,2017_12_14_1804,
"[3.0, 3.0]",2,0,13,13,25,,,,,1,0,1,0,left,0.475471298909,Dim,m,21,60.003647613,Set,2017_12_14_1804,
"[3.0, 3.0]",2,0,13,13,25,,,,,2,0,2,0,down,0.442111491728,Dim,m,21,60.003647613,Set,2017_12_14_1804,
"[3.0, 3.0]",2,0,13,13,25,,,,,3,0,3,0,down,0.825460917258,Dim,m,21,60.003647613,Set,2017_12_14_1804,
"[2.6, 2.6]",4,0,14,14,3,,,,,0,0,0,0,down,0.683574663744,Dim,m,21,60.003647613,Set,2017_12_14_1804,
"[2.6, 2.6]",4,0,14,14,3,,,,,1,0,1,0,down,0.508794790076,Dim,m,21,60.003647613,Set,2017_12_14_1804,
"[2.6, 2.6]",4,0,14,14,3,,,,,2,0,2,0,left,0.458769092555,Dim,m,21,60.003647613,Set,2017_12_14_1804,
"[2.6, 2.6]",4,0,14,14,3,,,,,3,0,3,0,down,0.408817605996,Dim,m,21,60.003647613,Set,2017_12_14_1804,
"[2.6, 2.6]",4,0,14,14,3,,,,,4,0,4,0,down,0.49211232068,Dim,m,21,60.003647613,Set,2017_12_14_1804,
"[2.8, 2.8]",1,0,15,15,12,,,,,0,0,0,0,down,0.533406386407,Dim,m,21,60.003647613,Set,2017_12_14_1804,
"[2.8, 2.8]",1,0,15,15,12,,,,,1,0,1,0,down,0.40877615838,Dim,m,21,60.003647613,Set,2017_12_14_1804,
"[2.9, 2.9]",4,0,16,16,21,,,,,0,0,0,0,down,0.86690261546,Dim,m,21,60.003647613,Set,2017_12_14_1804,
"[2.9, 2.9]",4,0,16,16,21,,,,,1,0,1,0,left,0.575448088239,Dim,m,21,60.003647613,Set,2017_12_14_1804,
"[2.9, 2.9]",4,0,16,16,21,,,,,2,0,2,0,down,0.558781013671,Dim,m,21,60.003647613,Set,2017_12_14_1804,
"[2.9, 2.9]",4,0,16,16,21,,,,,3,0,3,0,down,0.625448917192,Dim,m,21,60.003647613,Set,2017_12_14_1804,
"[2.6, 2.6]",3,0,17,17,2,,,,,0,0,0,0,down,0.533572571629,Dim,m,21,60.003647613,Set,2017_12_14_1804,
"[2.6, 2.6]",3,0,17,17,2,,,,,1,0,1,0,down,0.958819619176,Dim,m,21,60.003647613,Set,2017_12_14_1804,
"[2.8, 2.8]",4,0,18,18,15,,,,,0,0,0,0,down,0.600273633238,Dim,m,21,60.003647613,Set,2017_12_14_1804,
"[2.8, 2.8]",4,0,18,18,15,,,,,1,0,1,0,left,0.758783145269,Dim,m,21,60.003647613,Set,2017_12_14_1804,
"[2.8, 2.8]",4,0,18,18,15,,,,,2,0,2,0,left,0.825453417216,Dim,m,21,60.003647613,Set,2017_12_14_1804,
"[2.8, 2.8]",4,0,18,18,15,,,,,3,0,3,0,down,0.433556703108,Dim,m,21,60.003647613,Set,2017_12_14_1804,
"[2.8, 2.8]",4,0,18,18,15,,,,,4,0,4,0,down,0.408793526905,Dim,m,21,60.003647613,Set,2017_12_14_1804,
"[2.9, 2.9]",5,0,19,19,22,,,,,0,0,0,0,left,0.642127439191,Dim,m,21,60.003647613,Set,2017_12_14_1804,
"[2.9, 2.9]",5,0,19,19,22,,,,,1,0,1,0,down,0.475444456635,Dim,m,21,60.003647613,Set,2017_12_14_1804,
"[2.9, 2.9]",5,0,19,19,22,,,,,2,0,2,0,down,1.30877884261,Dim,m,21,60.003647613,Set,2017_12_14_1804,
"[2.8, 2.8]",2,0,20,20,13,,,,,0,0,0,0,down,0.51691576028,Dim,m,21,60.003647613,Set,2017_12_14_1804,
"[2.8, 2.8]",2,0,20,20,13,,,,,1,0,1,0,down,0.375462535696,Dim,m,21,60.003647613,Set,2017_12_14_1804,
"[3.0, 3.0]",6,0,21,21,29,,,,,0,0,0,0,left,0.642110860143,Dim,m,21,60.003647613,Set,2017_12_14_1804,
"[3.0, 3.0]",6,0,21,21,29,,,,,1,0,1,0,down,0.592151084071,Dim,m,21,60.003647613,Set,2017_12_14_1804,
"[3.0, 3.0]",6,0,21,21,29,,,,,2,0,2,0,down,0.375439640819,Dim,m,21,60.003647613,Set,2017_12_14_1804,
"[2.9, 2.9]",1,0,22,22,18,,,,,0,0,0,0,down,0.725434390784,Dim,m,21,60.003647613,Set,2017_12_14_1804,
"[2.9, 2.9]",1,0,22,22,18,,,,,1,0,1,0,down,1.04213564977,Dim,m,21,60.003647613,Set,2017_12_14_1804,
"[3.0, 3.0]",1,0,23,23,24,,,,,0,0,0,0,down,0.608782237367,Dim,m,21,60.003647613,Set,2017_12_14_1804,
"[3.0, 3.0]",1,0,23,23,24,,,,,1,0,1,0,down,0.658770434668,Dim,m,21,60.003647613,Set,2017_12_14_1804,
"[2.6, 2.6]",1,0,24,24,0,,,,,0,0,0,0,left,0.642151913024,Dim,m,21,60.003647613,Set,2017_12_14_1804,
"[2.6, 2.6]",1,0,24,24,0,,,,,1,0,1,0,left,0.392107504857,Dim,m,21,60.003647613,Set,2017_12_14_1804,
"[2.6, 2.6]",1,0,24,24,0,,,,,2,0,2,0,down,0.42542981181,Dim,m,21,60.003647613,Set,2017_12_14_1804,
"[2.6, 2.6]",1,0,24,24,0,,,,,3,0,3,0,down,0.392118162825,Dim,m,21,60.003647613,Set,2017_12_14_1804,
"[2.9, 2.9]",2,0,25,25,19,,,,,0,0,0,0,left,0.958784487382,Dim,m,21,60.003647613,Set,2017_12_14_1804,
"[2.9, 2.9]",2,0,25,25,19,,,,,1,0,1,0,down,0.442120570726,Dim,m,21,60.003647613,Set,2017_12_14_1804,
"[2.9, 2.9]",2,0,25,25,19,,,,,2,0,2,0,left,0.508799921685,Dim,m,21,60.003647613,Set,2017_12_14_1804,
"[2.9, 2.9]",2,0,25,25,19,,,,,3,0,3,0,down,0.425454680386,Dim,m,21,60.003647613,Set,2017_12_14_1804,
"[2.9, 2.9]",2,0,25,25,19,,,,,4,0,4,0,left,0.458763566203,Dim,m,21,60.003647613,Set,2017_12_14_1804,
"[2.9, 2.9]",2,0,25,25,19,,,,,5,0,5,0,down,0.508799132207,Dim,m,21,60.003647613,Set,2017_12_14_1804,
"[2.9, 2.9]",2,0,25,25,19,,,,,6,0,6,0,right,0.858713355374,Dim,m,21,60.003647613,Set,2017_12_14_1804,
"[2.9, 2.9]",2,0,25,25,19,,,,,7,0,7,0,down,0.658782671577,Dim,m,21,60.003647613,Set,2017_12_14_1804,
"[2.9, 2.9]",2,0,25,25,19,,,,,8,0,8,0,down,1.30878318474,Dim,m,21,60.003647613,Set,2017_12_14_1804,
"[2.6, 2.6]",2,0,26,26,1,,,,,0,0,0,0,down,0.542132491857,Dim,m,21,60.003647613,Set,2017_12_14_1804,
"[2.6, 2.6]",2,0,26,26,1,,,,,1,0,1,0,left,0.475447219811,Dim,m,21,60.003647613,Set,2017_12_14_1804,
"[2.6, 2.6]",2,0,26,26,1,,,,,2,0,2,0,down,0.658798066412,Dim,m,21,60.003647613,Set,2017_12_14_1804,
"[2.6, 2.6]",2,0,26,26,1,,,,,3,0,3,0,down,0.475411298539,Dim,m,21,60.003647613,Set,2017_12_14_1804,
"[2.6, 2.6]",2,0,26,26,1,,,,,4,0,4,0,left,0.458764750416,Dim,m,21,60.003647613,Set,2017_12_14_1804,
"[2.6, 2.6]",2,0,26,26,1,,,,,5,0,5,0,down,0.458788434771,Dim,m,21,60.003647613,Set,2017_12_14_1804,
"[2.6, 2.6]",2,0,26,26,1,,,,,6,0,6,0,left,0.692089583696,Dim,m,21,60.003647613,Set,2017_12_14_1804,
"[2.6, 2.6]",2,0,26,26,1,,,,,7,0,7,0,down,0.325437627653,Dim,m,21,60.003647613,Set,2017_12_14_1804,
"[2.6, 2.6]",2,0,26,26,1,,,,,8,0,8,0,down,0.425438890816,Dim,m,21,60.003647613,Set,2017_12_14_1804,
"[2.6, 2.6]",2,0,26,26,1,,,,,9,0,9,0,left,1.39208342577,Dim,m,21,60.003647613,Set,2017_12_14_1804,
"[2.6, 2.6]",2,0,26,26,1,,,,,10,0,10,0,down,1.30876621095,Dim,m,21,60.003647613,Set,2017_12_14_1804,
"[2.6, 2.6]",2,0,26,26,1,,,,,11,0,11,0,right,0.958764750416,Dim,m,21,60.003647613,Set,2017_12_14_1804,
"[2.6, 2.6]",2,0,26,26,1,,,,,12,0,12,0,down,0.625456022492,Dim,m,21,60.003647613,Set,2017_12_14_1804,
"[2.6, 2.6]",2,0,26,26,1,,,,,13,0,13,0,down,0.675440667139,Dim,m,21,60.003647613,Set,2017_12_14_1804,
"[2.7, 2.7]",1,0,27,27,6,,,,,0,0,0,0,down,0.558782592634,Dim,m,21,60.003647613,Set,2017_12_14_1804,
"[2.7, 2.7]",1,0,27,27,6,,,,,1,0,1,0,down,0.52546778573,Dim,m,21,60.003647613,Set,2017_12_14_1804,
"[3.0, 3.0]",3,0,28,28,26,,,,,0,0,0,0,down,0.575462693589,Dim,m,21,60.003647613,Set,2017_12_14_1804,
"[3.0, 3.0]",3,0,28,28,26,,,,,1,0,1,0,down,0.442142281383,Dim,m,21,60.003647613,Set,2017_12_14_1804,
"[2.6, 2.6]",5,0,29,29,4,,,,,0,0,0,0,down,0.550228593493,Dim,m,21,60.003647613,Set,2017_12_14_1804,
"[2.6, 2.6]",5,0,29,29,4,,,,,1,0,1,0,down,0.542190123786,Dim,m,21,60.003647613,Set,2017_12_14_1804,
