size,n,trials_2.thisRepN,trials_2.thisTrialN,trials_2.thisN,trials_2.thisIndex,trials.thisRepN,trials.thisTrialN,trials.thisN,trials.thisIndex,trials_3.thisRepN,trials_3.thisTrialN,trials_3.thisN,trials_3.thisIndex,answer.keys,answer.rt,participant,gender,age,frameRate,expName,date,
"[2.9, 2.9]",6,0,0,0,23,,,,,0,0,0,0,left,0.742118439171,DN,m,27,59.988302206,Set,2017_12_20_1935,
"[2.9, 2.9]",6,0,0,0,23,,,,,1,0,1,0,left,1.25880288228,DN,m,27,59.988302206,Set,2017_12_20_1935,
"[2.9, 2.9]",6,0,0,0,23,,,,,2,0,2,0,left,0.442107544397,DN,m,27,59.988302206,Set,2017_12_20_1935,
"[2.9, 2.9]",6,0,0,0,23,,,,,3,0,3,0,left,0.392154873582,DN,m,27,59.988302206,Set,2017_12_20_1935,
"[2.9, 2.9]",6,0,0,0,23,,,,,4,0,4,0,left,0.450238383026,DN,m,27,59.988302206,Set,2017_12_20_1935,
"[2.9, 2.9]",6,0,0,0,23,,,,,5,0,5,0,left,0.475456693559,DN,m,27,59.988302206,Set,2017_12_20_1935,
"[2.9, 2.9]",6,0,0,0,23,,,,,6,0,6,0,left,0.642123097088,DN,m,27,59.988302206,Set,2017_12_20_1935,
"[2.9, 2.9]",6,0,0,0,23,,,,,7,0,7,0,left,0.425467312103,DN,m,27,59.988302206,Set,2017_12_20_1935,
"[2.9, 2.9]",6,0,0,0,23,,,,,8,0,8,0,left,0.958773829509,DN,m,27,59.988302206,Set,2017_12_20_1935,
"[2.9, 2.9]",6,0,0,0,23,,,,,9,0,9,0,left,0.408774974174,DN,m,27,59.988302206,Set,2017_12_20_1935,
"[2.9, 2.9]",6,0,0,0,23,,,,,10,0,10,0,left,0.292118873447,DN,m,27,59.988302206,Set,2017_12_20_1935,
"[2.9, 2.9]",6,0,0,0,23,,,,,11,0,11,0,left,0.325464469963,DN,m,27,59.988302206,Set,2017_12_20_1935,
"[2.9, 2.9]",6,0,0,0,23,,,,,12,0,12,0,left,0.258743671351,DN,m,27,59.988302206,Set,2017_12_20_1935,
"[2.9, 2.9]",6,0,0,0,23,,,,,13,0,13,0,left,0.258782750461,DN,m,27,59.988302206,Set,2017_12_20_1935,
"[2.9, 2.9]",6,0,0,0,23,,,,,14,0,14,0,left,0.375300692627,DN,m,27,59.988302206,Set,2017_12_20_1935,
"[2.9, 2.9]",6,0,0,0,23,,,,,15,0,15,0,left,0.392131583998,DN,m,27,59.988302206,Set,2017_12_20_1935,
"[2.9, 2.9]",6,0,0,0,23,,,,,16,0,16,0,left,0.308796605794,DN,m,27,59.988302206,Set,2017_12_20_1935,
"[2.9, 2.9]",6,0,0,0,23,,,,,17,0,17,0,left,0.225512549165,DN,m,27,59.988302206,Set,2017_12_20_1935,
"[2.9, 2.9]",6,0,0,0,23,,,,,18,0,18,0,left,0.25877761899,DN,m,27,59.988302206,Set,2017_12_20_1935,
"[2.9, 2.9]",6,0,0,0,23,,,,,19,0,19,0,left,1.49212376808,DN,m,27,59.988302206,Set,2017_12_20_1935,
"[2.9, 2.9]",6,0,0,0,23,,,,,20,0,20,0,left,0.242140149814,DN,m,27,59.988302206,Set,2017_12_20_1935,
"[2.9, 2.9]",6,0,0,0,23,,,,,21,0,21,0,left,0.292148478795,DN,m,27,59.988302206,Set,2017_12_20_1935,
"[2.9, 2.9]",6,0,0,0,23,,,,,22,0,22,0,left,0.192097873311,DN,m,27,59.988302206,Set,2017_12_20_1935,
"[2.9, 2.9]",6,0,0,0,23,,,,,23,0,23,0,left,0.292136241915,DN,m,27,59.988302206,Set,2017_12_20_1935,
"[2.9, 2.9]",6,0,0,0,23,,,,,24,0,24,0,left,0.458784882212,DN,m,27,59.988302206,Set,2017_12_20_1935,
"[2.9, 2.9]",6,0,0,0,23,,,,,25,0,25,0,left,0.192111294367,DN,m,27,59.988302206,Set,2017_12_20_1935,
"[2.9, 2.9]",6,0,0,0,23,,,,,26,0,26,0,right,0.225460048881,DN,m,27,59.988302206,Set,2017_12_20_1935,
"[2.9, 2.9]",6,0,0,0,23,,,,,27,0,27,0,left,0.2088438957,DN,m,27,59.988302206,Set,2017_12_20_1935,
"[2.9, 2.9]",6,0,0,0,23,,,,,28,0,28,0,left,0.392122505,DN,m,27,59.988302206,Set,2017_12_20_1935,
"[2.9, 2.9]",6,0,0,0,23,,,,,29,0,29,0,right,0.358806119068,DN,m,27,59.988302206,Set,2017_12_20_1935,
"[2.9, 2.9]",6,0,0,0,23,,,,,30,0,30,0,left,0.275470351567,DN,m,27,59.988302206,Set,2017_12_20_1935,
"[2.9, 2.9]",6,0,0,0,23,,,,,31,0,31,0,left,0.2921796632,DN,m,27,59.988302206,Set,2017_12_20_1935,
"[2.9, 2.9]",6,0,0,0,23,,,,,32,0,32,0,left,0.242133439169,DN,m,27,59.988302206,Set,2017_12_20_1935,
"[2.9, 2.9]",6,0,0,0,23,,,,,33,0,33,0,left,0.275449824985,DN,m,27,59.988302206,Set,2017_12_20_1935,
"[2.9, 2.9]",6,0,0,0,23,,,,,34,0,34,0,left,0.142117965501,DN,m,27,59.988302206,Set,2017_12_20_1935,
"[2.9, 2.9]",6,0,0,0,23,,,,,35,0,35,0,left,0.14214322879,DN,m,27,59.988302206,Set,2017_12_20_1935,
"[2.9, 2.9]",6,0,0,0,23,,,,,36,0,36,0,right,0.142145202379,DN,m,27,59.988302206,Set,2017_12_20_1935,
"[2.9, 2.9]",6,0,0,0,23,,,,,37,0,37,0,left,0.158824119135,DN,m,27,59.988302206,Set,2017_12_20_1935,
"[2.9, 2.9]",6,0,0,0,23,,,,,38,0,38,0,right,0.516903128708,DN,m,27,59.988302206,Set,2017_12_20_1935,
"[2.9, 2.9]",6,0,0,0,23,,,,,39,0,39,0,right,0.19213063654,DN,m,27,59.988302206,Set,2017_12_20_1935,
"[2.9, 2.9]",6,0,0,0,23,,,,,40,0,40,0,right,0.208774421597,DN,m,27,59.988302206,Set,2017_12_20_1935,
"[2.9, 2.9]",6,0,0,0,23,,,,,41,0,41,0,left,0.225504259579,DN,m,27,59.988302206,Set,2017_12_20_1935,
"[2.9, 2.9]",6,0,0,0,23,,,,,42,0,42,0,left,0.242155939341,DN,m,27,59.988302206,Set,2017_12_20_1935,
"[2.9, 2.9]",6,0,0,0,23,,,,,43,0,43,0,left,0.342259439989,DN,m,27,59.988302206,Set,2017_12_20_1935,
"[2.9, 2.9]",6,0,0,0,23,,,,,44,0,44,0,left,0.392147768289,DN,m,27,59.988302206,Set,2017_12_20_1935,
"[2.9, 2.9]",6,0,0,0,23,,,,,45,0,45,0,right,0.242127123405,DN,m,27,59.988302206,Set,2017_12_20_1935,
"[2.9, 2.9]",6,0,0,0,23,,,,,46,0,46,0,left,0.242133044521,DN,m,27,59.988302206,Set,2017_12_20_1935,
"[2.9, 2.9]",6,0,0,0,23,,,,,47,0,47,0,right,0.425471259514,DN,m,27,59.988302206,Set,2017_12_20_1935,
"[2.9, 2.9]",6,0,0,0,23,,,,,48,0,48,0,left,0.442120570689,DN,m,27,59.988302206,Set,2017_12_20_1935,
"[2.9, 2.9]",6,0,0,0,23,,,,,49,0,49,0,right,0.225464785704,DN,m,27,59.988302206,Set,2017_12_20_1935,
"[2.9, 2.9]",6,0,0,0,23,,,,,50,0,50,0,left,0.375475956826,DN,m,27,59.988302206,Set,2017_12_20_1935,
"[2.9, 2.9]",6,0,0,0,23,,,,,51,0,51,0,left,0.392122899764,DN,m,27,59.988302206,Set,2017_12_20_1935,
"[2.9, 2.9]",6,0,0,0,23,,,,,52,0,52,0,left,0.258787092636,DN,m,27,59.988302206,Set,2017_12_20_1935,
"[2.9, 2.9]",6,0,0,0,23,,,,,53,0,53,0,right,0.175504614948,DN,m,27,59.988302206,Set,2017_12_20_1935,
"[2.9, 2.9]",6,0,0,0,23,,,,,54,0,54,0,left,0.208788237418,DN,m,27,59.988302206,Set,2017_12_20_1935,
"[2.9, 2.9]",6,0,0,0,23,,,,,55,0,55,0,right,0.175454483018,DN,m,27,59.988302206,Set,2017_12_20_1935,
"[2.9, 2.9]",6,0,0,0,23,,,,,56,0,56,0,left,0.208789816359,DN,m,27,59.988302206,Set,2017_12_20_1935,
"[2.9, 2.9]",6,0,0,0,23,,,,,57,0,57,0,left,0.392103162711,DN,m,27,59.988302206,Set,2017_12_20_1935,
"[2.9, 2.9]",6,0,0,0,23,,,,,58,0,58,0,left,0.308855422074,DN,m,27,59.988302206,Set,2017_12_20_1935,
"[2.9, 2.9]",6,0,0,0,23,,,,,59,0,59,0,right,0.425457048812,DN,m,27,59.988302206,Set,2017_12_20_1935,
"[2.9, 2.9]",6,0,0,0,23,,,,,60,0,60,0,right,1.10876328999,DN,m,27,59.988302206,Set,2017_12_20_1935,
"[2.9, 2.9]",6,0,0,0,23,,,,,61,0,61,0,left,0.575437035528,DN,m,27,59.988302206,Set,2017_12_20_1935,
"[2.9, 2.9]",6,0,0,0,23,,,,,62,0,62,0,left,0.625456417212,DN,m,27,59.988302206,Set,2017_12_20_1935,
"[2.9, 2.9]",6,0,0,0,23,,,,,63,0,63,0,right,0.358784013661,DN,m,27,59.988302206,Set,2017_12_20_1935,
"[2.9, 2.9]",6,0,0,0,23,,,,,64,0,64,0,right,0.342068781029,DN,m,27,59.988302206,Set,2017_12_20_1935,
"[2.9, 2.9]",6,0,0,0,23,,,,,65,0,65,0,left,0.408787605818,DN,m,27,59.988302206,Set,2017_12_20_1935,
"[2.9, 2.9]",6,0,0,0,23,,,,,66,0,66,0,right,0.308794632205,DN,m,27,59.988302206,Set,2017_12_20_1935,
"[2.9, 2.9]",6,0,0,0,23,,,,,67,0,67,0,left,0.491955214529,DN,m,27,59.988302206,Set,2017_12_20_1935,
"[2.9, 2.9]",6,0,0,0,23,,,,,68,0,68,0,right,0.292118478566,DN,m,27,59.988302206,Set,2017_12_20_1935,
"[2.9, 2.9]",6,0,0,0,23,,,,,69,0,69,0,right,0.425464154105,DN,m,27,59.988302206,Set,2017_12_20_1935,
"[2.9, 2.9]",6,0,0,0,23,,,,,70,0,70,0,left,0.308781211032,DN,m,27,59.988302206,Set,2017_12_20_1935,
"[2.9, 2.9]",6,0,0,0,23,,,,,71,0,71,0,right,0.308775684796,DN,m,27,59.988302206,Set,2017_12_20_1935,
"[2.9, 2.9]",6,0,0,0,23,,,,,72,0,72,0,right,0.308622131124,DN,m,27,59.988302206,Set,2017_12_20_1935,
"[2.9, 2.9]",6,0,0,0,23,,,,,73,0,73,0,right,0.258927225135,DN,m,27,59.988302206,Set,2017_12_20_1935,
"[2.9, 2.9]",6,0,0,0,23,,,,,74,0,74,0,right,0.38362732192,DN,m,27,59.988302206,Set,2017_12_20_1935,
"[2.9, 2.9]",6,0,0,0,23,,,,,75,0,75,0,left,0.358804934891,DN,m,27,59.988302206,Set,2017_12_20_1935,
"[2.9, 2.9]",6,0,0,0,23,,,,,76,0,76,0,left,0.325468812021,DN,m,27,59.988302206,Set,2017_12_20_1935,
"[2.9, 2.9]",6,0,0,0,23,,,,,77,0,77,0,left,0.342210492236,DN,m,27,59.988302206,Set,2017_12_20_1935,
"[2.9, 2.9]",6,0,0,0,23,,,,,78,0,78,0,left,0.708792974241,DN,m,27,59.988302206,Set,2017_12_20_1935,
"[2.9, 2.9]",6,0,0,0,23,,,,,79,0,79,0,left,0.492124162847,DN,m,27,59.988302206,Set,2017_12_20_1935,
"[2.9, 2.9]",6,0,0,0,23,,,,,80,0,80,0,right,0.358779276721,DN,m,27,59.988302206,Set,2017_12_20_1935,
"[2.9, 2.9]",6,0,0,0,23,,,,,81,0,81,0,left,0.375466483179,DN,m,27,59.988302206,Set,2017_12_20_1935,
"[2.9, 2.9]",6,0,0,0,23,,,,,82,0,82,0,left,0.508791237487,DN,m,27,59.988302206,Set,2017_12_20_1935,
"[2.9, 2.9]",6,0,0,0,23,,,,,83,0,83,0,left,0.442122939159,DN,m,27,59.988302206,Set,2017_12_20_1935,
"[2.9, 2.9]",6,0,0,0,23,,,,,84,0,84,0,left,0.392113031237,DN,m,27,59.988302206,Set,2017_12_20_1935,
"[2.9, 2.9]",6,0,0,0,23,,,,,85,0,85,0,left,0.392134347116,DN,m,27,59.988302206,Set,2017_12_20_1935,
"[2.9, 2.9]",6,0,0,0,23,,,,,86,0,86,0,left,0.642097439035,DN,m,27,59.988302206,Set,2017_12_20_1935,
"[2.9, 2.9]",6,0,0,0,23,,,,,87,0,87,0,left,0.558778250474,DN,m,27,59.988302206,Set,2017_12_20_1935,
"[2.9, 2.9]",6,0,0,0,23,,,,,88,0,88,0,left,0.408779316233,DN,m,27,59.988302206,Set,2017_12_20_1935,
"[2.9, 2.9]",6,0,0,0,23,,,,,89,0,89,0,left,0.49211666279,DN,m,27,59.988302206,Set,2017_12_20_1935,
"[2.9, 2.9]",6,0,0,0,23,,,,,90,0,90,0,left,0.408819184988,DN,m,27,59.988302206,Set,2017_12_20_1935,
"[2.9, 2.9]",6,0,0,0,23,,,,,91,0,91,0,left,0.69212668913,DN,m,27,59.988302206,Set,2017_12_20_1935,
"[2.9, 2.9]",6,0,0,0,23,,,,,92,0,92,0,right,0.325592365465,DN,m,27,59.988302206,Set,2017_12_20_1935,
"[2.9, 2.9]",6,0,0,0,23,,,,,93,0,93,0,right,0.24212041276,DN,m,27,59.988302206,Set,2017_12_20_1935,
"[2.9, 2.9]",6,0,0,0,23,,,,,94,0,94,0,right,0.275438772398,DN,m,27,59.988302206,Set,2017_12_20_1935,
"[2.9, 2.9]",6,0,0,0,23,,,,,95,0,95,0,left,0.442143070861,DN,m,27,59.988302206,Set,2017_12_20_1935,
"[2.9, 2.9]",6,0,0,0,23,,,,,96,0,96,0,left,0.375454246183,DN,m,27,59.988302206,Set,2017_12_20_1935,
"[2.9, 2.9]",6,0,0,0,23,,,,,97,0,97,0,right,0.342121281312,DN,m,27,59.988302206,Set,2017_12_20_1935,
"[2.9, 2.9]",6,0,0,0,23,,,,,98,0,98,0,left,0.458895014366,DN,m,27,59.988302206,Set,2017_12_20_1935,
"[2.9, 2.9]",6,0,0,0,23,,,,,99,0,99,0,left,0.392123689177,DN,m,27,59.988302206,Set,2017_12_20_1935,
"[2.6, 2.6]",1,0,1,1,0,,,,,0,0,0,0,left,0.642138097086,DN,m,27,59.988302206,Set,2017_12_20_1935,
"[2.6, 2.6]",1,0,1,1,0,,,,,1,0,1,0,right,0.475472877966,DN,m,27,59.988302206,Set,2017_12_20_1935,
"[2.6, 2.6]",1,0,1,1,0,,,,,2,0,2,0,left,0.5421257813,DN,m,27,59.988302206,Set,2017_12_20_1935,
"[2.6, 2.6]",1,0,1,1,0,,,,,3,0,3,0,right,0.275449825102,DN,m,27,59.988302206,Set,2017_12_20_1935,
"[2.6, 2.6]",1,0,1,1,0,,,,,4,0,4,0,left,0.292118083918,DN,m,27,59.988302206,Set,2017_12_20_1935,
"[2.6, 2.6]",1,0,1,1,0,,,,,5,0,5,0,right,0.492088636267,DN,m,27,59.988302206,Set,2017_12_20_1935,
"[2.6, 2.6]",1,0,1,1,0,,,,,6,0,6,0,right,0.19210379431,DN,m,27,59.988302206,Set,2017_12_20_1935,
"[2.6, 2.6]",1,0,1,1,0,,,,,7,0,7,0,left,0.342107465491,DN,m,27,59.988302206,Set,2017_12_20_1935,
"[2.6, 2.6]",1,0,1,1,0,,,,,8,0,8,0,left,0.2754589041,DN,m,27,59.988302206,Set,2017_12_20_1935,
"[2.6, 2.6]",1,0,1,1,0,,,,,9,0,9,0,right,0.208812711295,DN,m,27,59.988302206,Set,2017_12_20_1935,
"[2.6, 2.6]",1,0,1,1,0,,,,,10,0,10,0,left,0.242122781347,DN,m,27,59.988302206,Set,2017_12_20_1935,
"[2.6, 2.6]",1,0,1,1,0,,,,,11,0,11,0,right,0.225448206649,DN,m,27,59.988302206,Set,2017_12_20_1935,
"[2.6, 2.6]",1,0,1,1,0,,,,,12,0,12,0,right,0.208817053353,DN,m,27,59.988302206,Set,2017_12_20_1935,
"[2.6, 2.6]",1,0,1,1,0,,,,,13,0,13,0,right,0.175431982847,DN,m,27,59.988302206,Set,2017_12_20_1935,
"[2.6, 2.6]",1,0,1,1,0,,,,,14,0,14,0,right,0.175434351317,DN,m,27,59.988302206,Set,2017_12_20_1935,
"[2.6, 2.6]",1,0,1,1,0,,,,,15,0,15,0,right,0.158788987435,DN,m,27,59.988302206,Set,2017_12_20_1935,
"[2.6, 2.6]",1,0,1,1,0,,,,,16,0,16,0,right,0.200241343584,DN,m,27,59.988302206,Set,2017_12_20_1935,
"[2.6, 2.6]",1,0,1,1,0,,,,,17,0,17,0,right,0.192132610246,DN,m,27,59.988302206,Set,2017_12_20_1935,
"[2.6, 2.6]",1,0,1,1,0,,,,,18,0,18,0,right,0.0754180880031,DN,m,27,59.988302206,Set,2017_12_20_1935,
"[2.6, 2.6]",1,0,1,1,0,,,,,19,0,19,0,right,0.158805171726,DN,m,27,59.988302206,Set,2017_12_20_1935,
"[2.6, 2.6]",1,0,1,1,0,,,,,20,0,20,0,left,0.108764079399,DN,m,27,59.988302206,Set,2017_12_20_1935,
"[2.6, 2.6]",1,0,1,1,0,,,,,21,0,21,0,right,0.175513299182,DN,m,27,59.988302206,Set,2017_12_20_1935,
"[2.6, 2.6]",1,0,1,1,0,,,,,22,0,22,0,right,0.108809079626,DN,m,27,59.988302206,Set,2017_12_20_1935,
"[2.6, 2.6]",1,0,1,1,0,,,,,23,0,23,0,left,0.258779592696,DN,m,27,59.988302206,Set,2017_12_20_1935,
"[2.6, 2.6]",1,0,1,1,0,,,,,24,0,24,0,right,0.0754678251687,DN,m,27,59.988302206,Set,2017_12_20_1935,
"[2.6, 2.6]",1,0,1,1,0,,,,,25,0,25,0,right,0.125454838271,DN,m,27,59.988302206,Set,2017_12_20_1935,
"[2.6, 2.6]",1,0,1,1,0,,,,,26,0,26,0,right,0.158790961141,DN,m,27,59.988302206,Set,2017_12_20_1935,
"[2.6, 2.6]",1,0,1,1,0,,,,,27,0,27,0,left,0.225460048765,DN,m,27,59.988302206,Set,2017_12_20_1935,
"[2.6, 2.6]",1,0,1,1,0,,,,,28,0,28,0,right,0.0754666409921,DN,m,27,59.988302206,Set,2017_12_20_1935,
"[2.6, 2.6]",1,0,1,1,0,,,,,29,0,29,0,right,0.592148320866,DN,m,27,59.988302206,Set,2017_12_20_1935,
"[2.6, 2.6]",1,0,1,1,0,,,,,30,0,30,0,right,0.22548136476,DN,m,27,59.988302206,Set,2017_12_20_1935,
"[2.6, 2.6]",1,0,1,1,0,,,,,31,0,31,0,left,0.258794198046,DN,m,27,59.988302206,Set,2017_12_20_1935,
"[2.6, 2.6]",1,0,1,1,0,,,,,32,0,32,0,right,0.208798105945,DN,m,27,59.988302206,Set,2017_12_20_1935,
"[2.6, 2.6]",1,0,1,1,0,,,,,33,0,33,0,right,0.192127873423,DN,m,27,59.988302206,Set,2017_12_20_1935,
"[2.6, 2.6]",1,0,1,1,0,,,,,34,0,34,0,right,0.0921171364607,DN,m,27,59.988302206,Set,2017_12_20_1935,
"[2.6, 2.6]",1,0,1,1,0,,,,,35,0,35,0,right,0.14214559726,DN,m,27,59.988302206,Set,2017_12_20_1935,
"[2.6, 2.6]",1,0,1,1,0,,,,,36,0,36,0,right,0.258803277044,DN,m,27,59.988302206,Set,2017_12_20_1935,
"[2.6, 2.6]",1,0,1,1,0,,,,,37,0,37,0,right,0.158780697966,DN,m,27,59.988302206,Set,2017_12_20_1935,
"[2.6, 2.6]",1,0,1,1,0,,,,,38,0,38,0,right,0.142140465672,DN,m,27,59.988302206,Set,2017_12_20_1935,
"[2.6, 2.6]",1,0,1,1,0,,,,,39,0,39,0,right,0.0421123602428,DN,m,27,59.988302206,Set,2017_12_20_1935,
"[2.6, 2.6]",1,0,1,1,0,,,,,40,0,40,0,right,0.0754729567561,DN,m,27,59.988302206,Set,2017_12_20_1935,
"[2.6, 2.6]",1,0,1,1,0,,,,,41,0,41,0,right,0.142122307559,DN,m,27,59.988302206,Set,2017_12_20_1935,
"[2.6, 2.6]",1,0,1,1,0,,,,,42,0,42,0,right,0.0254468645435,DN,m,27,59.988302206,Set,2017_12_20_1935,
"[2.6, 2.6]",1,0,1,1,0,,,,,43,0,43,0,right,0.000250264653005,DN,m,27,59.988302206,Set,2017_12_20_1935,
"[2.6, 2.6]",1,0,1,1,0,,,,,44,0,44,0,right,0.183578216354,DN,m,27,59.988302206,Set,2017_12_20_1935,
"[2.6, 2.6]",1,0,1,1,0,,,,,45,0,45,0,right,0.0254523908952,DN,m,27,59.988302206,Set,2017_12_20_1935,
"[2.6, 2.6]",1,0,1,1,0,,,,,46,0,46,0,right,0.0921041100519,DN,m,27,59.988302206,Set,2017_12_20_1935,
"[2.6, 2.6]",1,0,1,1,0,,,,,47,0,47,0,right,0.0255254176445,DN,m,27,59.988302206,Set,2017_12_20_1935,
"[2.6, 2.6]",1,0,1,1,0,,,,,48,0,48,0,right,0.0421269654762,DN,m,27,59.988302206,Set,2017_12_20_1935,
"[2.6, 2.6]",1,0,1,1,0,,,,,49,0,49,0,right,0.158801224316,DN,m,27,59.988302206,Set,2017_12_20_1935,
"[2.6, 2.6]",1,0,1,1,0,,,,,50,0,50,0,right,0.175474219956,DN,m,27,59.988302206,Set,2017_12_20_1935,
"[2.6, 2.6]",1,0,1,1,0,,,,,51,0,51,0,right,0.0754930885741,DN,m,27,59.988302206,Set,2017_12_20_1935,
"[2.6, 2.6]",1,0,1,1,0,,,,,52,0,52,0,right,0.000257369945757,DN,m,27,59.988302206,Set,2017_12_20_1935,
"[2.6, 2.6]",1,0,1,1,0,,,,,53,0,53,0,right,0.0169670763426,DN,m,27,59.988302206,Set,2017_12_20_1935,
"[2.6, 2.6]",1,0,1,1,0,,,,,54,0,54,0,right,0.0254381801933,DN,m,27,59.988302206,Set,2017_12_20_1935,
"[2.6, 2.6]",1,0,1,1,0,,,,,55,0,55,0,right,0.158820566488,DN,m,27,59.988302206,Set,2017_12_20_1935,
"[2.6, 2.6]",1,0,1,1,0,,,,,56,0,56,0,right,0.000264475354925,DN,m,27,59.988302206,Set,2017_12_20_1935,
"[2.6, 2.6]",1,0,1,1,0,,,,,57,0,57,0,right,0.0503071466228,DN,m,27,59.988302206,Set,2017_12_20_1935,
"[2.6, 2.6]",1,0,1,1,0,,,,,58,0,58,0,right,0.000267238472588,DN,m,27,59.988302206,Set,2017_12_20_1935,
"[2.6, 2.6]",1,0,1,1,0,,,,,59,0,59,0,right,0.100252712029,DN,m,27,59.988302206,Set,2017_12_20_1935,
"[2.6, 2.6]",1,0,1,1,0,,,,,60,0,60,0,right,0.658823329723,DN,m,27,59.988302206,Set,2017_12_20_1935,
"[2.6, 2.6]",1,0,1,1,0,,,,,61,0,61,0,right,0.192131426069,DN,m,27,59.988302206,Set,2017_12_20_1935,
"[2.6, 2.6]",1,0,1,1,0,,,,,62,0,62,0,right,0.108790132101,DN,m,27,59.988302206,Set,2017_12_20_1935,
"[2.6, 2.6]",1,0,1,1,0,,,,,63,0,63,0,right,0.0921096364036,DN,m,27,59.988302206,Set,2017_12_20_1935,
"[2.6, 2.6]",1,0,1,1,0,,,,,64,0,64,0,right,0.125454443507,DN,m,27,59.988302206,Set,2017_12_20_1935,
"[2.6, 2.6]",1,0,1,1,0,,,,,65,0,65,0,right,0.0754670357564,DN,m,27,59.988302206,Set,2017_12_20_1935,
"[2.6, 2.6]",1,0,1,1,0,,,,,66,0,66,0,right,0.17547461472,DN,m,27,59.988302206,Set,2017_12_20_1935,
"[2.6, 2.6]",1,0,1,1,0,,,,,67,0,67,0,right,0.0921341102803,DN,m,27,59.988302206,Set,2017_12_20_1935,
"[2.6, 2.6]",1,0,1,1,0,,,,,68,0,68,0,right,0.0254456803668,DN,m,27,59.988302206,Set,2017_12_20_1935,
"[2.6, 2.6]",1,0,1,1,0,,,,,69,0,69,0,right,0.0254701542435,DN,m,27,59.988302206,Set,2017_12_20_1935,
"[2.6, 2.6]",1,0,1,1,0,,,,,70,0,70,0,right,0.192114057485,DN,m,27,59.988302206,Set,2017_12_20_1935,
"[2.6, 2.6]",1,0,1,1,0,,,,,71,0,71,0,right,0.192126294482,DN,m,27,59.988302206,Set,2017_12_20_1935,
"[2.6, 2.6]",1,0,1,1,0,,,,,72,0,72,0,right,0.0754851936363,DN,m,27,59.988302206,Set,2017_12_20_1935,
"[2.6, 2.6]",1,0,1,1,0,,,,,73,0,73,0,right,0.192120768013,DN,m,27,59.988302206,Set,2017_12_20_1935,
"[2.6, 2.6]",1,0,1,1,0,,,,,74,0,74,0,right,0.142113228561,DN,m,27,59.988302206,Set,2017_12_20_1935,
"[2.6, 2.6]",1,0,1,1,0,,,,,75,0,75,0,right,0.15879293473,DN,m,27,59.988302206,Set,2017_12_20_1935,
"[2.6, 2.6]",1,0,1,1,0,,,,,76,0,76,0,down,2.64209072839,DN,m,27,59.988302206,Set,2017_12_20_1935,
"[2.6, 2.6]",1,0,1,1,0,,,,,77,0,77,0,down,0.708786658477,DN,m,27,59.988302206,Set,2017_12_20_1935,
"[2.6, 2.6]",3,0,2,2,2,,,,,0,0,0,0,down,0.275488114799,DN,m,27,59.988302206,Set,2017_12_20_1935,
"[2.6, 2.6]",3,0,2,2,2,,,,,1,0,1,0,down,0.258856566739,DN,m,27,59.988302206,Set,2017_12_20_1935,
"[2.9, 2.9]",4,0,3,3,21,,,,,0,0,0,0,left,0.500251054182,DN,m,27,59.988302206,Set,2017_12_20_1935,
"[2.9, 2.9]",4,0,3,3,21,,,,,1,0,1,0,left,0.34213628131,DN,m,27,59.988302206,Set,2017_12_20_1935,
"[2.9, 2.9]",4,0,3,3,21,,,,,2,0,2,0,down,0.325477496372,DN,m,27,59.988302206,Set,2017_12_20_1935,
"[2.9, 2.9]",4,0,3,3,21,,,,,3,0,3,0,down,0.158789776848,DN,m,27,59.988302206,Set,2017_12_20_1935,
"[3.0, 3.0]",3,0,4,4,26,,,,,0,0,0,0,left,0.275455351453,DN,m,27,59.988302206,Set,2017_12_20_1935,
"[3.0, 3.0]",3,0,4,4,26,,,,,1,0,1,0,left,0.958776592626,DN,m,27,59.988302206,Set,2017_12_20_1935,
"[3.0, 3.0]",3,0,4,4,26,,,,,2,0,2,0,left,1.10878736898,DN,m,27,59.988302206,Set,2017_12_20_1935,
"[3.0, 3.0]",3,0,4,4,26,,,,,3,0,3,0,right,0.37547398312,DN,m,27,59.988302206,Set,2017_12_20_1935,
"[3.0, 3.0]",3,0,4,4,26,,,,,4,0,4,0,down,0.625448917155,DN,m,27,59.988302206,Set,2017_12_20_1935,
"[3.0, 3.0]",3,0,4,4,26,,,,,5,0,5,0,left,0.44211228122,DN,m,27,59.988302206,Set,2017_12_20_1935,
"[3.0, 3.0]",3,0,4,4,26,,,,,6,0,6,0,down,0.42543928558,DN,m,27,59.988302206,Set,2017_12_20_1935,
"[3.0, 3.0]",3,0,4,4,26,,,,,7,0,7,0,left,0.575476114755,DN,m,27,59.988302206,Set,2017_12_20_1935,
"[3.0, 3.0]",3,0,4,4,26,,,,,8,0,8,0,down,0.592140426044,DN,m,27,59.988302206,Set,2017_12_20_1935,
"[3.0, 3.0]",3,0,4,4,26,,,,,9,0,9,0,down,0.358799803187,DN,m,27,59.988302206,Set,2017_12_20_1935,
"[3.0, 3.0]",3,0,4,4,26,,,,,10,0,10,0,left,0.425436522346,DN,m,27,59.988302206,Set,2017_12_20_1935,
"[3.0, 3.0]",3,0,4,4,26,,,,,11,0,11,0,down,0.475474456907,DN,m,27,59.988302206,Set,2017_12_20_1935,
"[3.0, 3.0]",3,0,4,4,26,,,,,12,0,12,0,down,0.425468891044,DN,m,27,59.988302206,Set,2017_12_20_1935,
"[3.0, 3.0]",3,0,4,4,26,,,,,13,0,13,0,left,0.458793566329,DN,m,27,59.988302206,Set,2017_12_20_1935,
"[3.0, 3.0]",3,0,4,4,26,,,,,14,0,14,0,down,0.658790171612,DN,m,27,59.988302206,Set,2017_12_20_1935,
"[3.0, 3.0]",3,0,4,4,26,,,,,15,0,15,0,down,0.575454798876,DN,m,27,59.988302206,Set,2017_12_20_1935,
"[3.0, 3.0]",3,0,4,4,26,,,,,16,0,16,0,left,0.39210553118,DN,m,27,59.988302206,Set,2017_12_20_1935,
"[3.0, 3.0]",3,0,4,4,26,,,,,17,0,17,0,left,0.375459772535,DN,m,27,59.988302206,Set,2017_12_20_1935,
"[3.0, 3.0]",3,0,4,4,26,,,,,18,0,18,0,left,0.35879861901,DN,m,27,59.988302206,Set,2017_12_20_1935,
"[3.0, 3.0]",3,0,4,4,26,,,,,19,0,19,0,left,0.292134662974,DN,m,27,59.988302206,Set,2017_12_20_1935,
"[3.0, 3.0]",3,0,4,4,26,,,,,20,0,20,0,down,0.242118044407,DN,m,27,59.988302206,Set,2017_12_20_1935,
"[3.0, 3.0]",3,0,4,4,26,,,,,21,0,21,0,down,0.592123057577,DN,m,27,59.988302206,Set,2017_12_20_1935,
"[3.0, 3.0]",3,0,4,4,26,,,,,22,0,22,0,left,0.358811645419,DN,m,27,59.988302206,Set,2017_12_20_1935,
"[3.0, 3.0]",3,0,4,4,26,,,,,23,0,23,0,down,0.458816066501,DN,m,27,59.988302206,Set,2017_12_20_1935,
"[3.0, 3.0]",3,0,4,4,26,,,,,24,0,24,0,left,0.492139557726,DN,m,27,59.988302206,Set,2017_12_20_1935,
"[3.0, 3.0]",3,0,4,4,26,,,,,25,0,25,0,down,0.225455311942,DN,m,27,59.988302206,Set,2017_12_20_1935,
"[3.0, 3.0]",3,0,4,4,26,,,,,26,0,26,0,down,0.275461272569,DN,m,27,59.988302206,Set,2017_12_20_1935,
"[2.9, 2.9]",1,0,5,5,18,,,,,0,0,0,0,left,0.308797000675,DN,m,27,59.988302206,Set,2017_12_20_1935,
"[2.9, 2.9]",1,0,5,5,18,,,,,1,0,1,0,left,0.208801263827,DN,m,27,59.988302206,Set,2017_12_20_1935,
"[2.9, 2.9]",1,0,5,5,18,,,,,2,0,2,0,down,0.275475483155,DN,m,27,59.988302206,Set,2017_12_20_1935,
"[2.9, 2.9]",1,0,5,5,18,,,,,3,0,3,0,left,0.458786461037,DN,m,27,59.988302206,Set,2017_12_20_1935,
"[2.9, 2.9]",1,0,5,5,18,,,,,4,0,4,0,down,0.425460996223,DN,m,27,59.988302206,Set,2017_12_20_1935,
"[2.9, 2.9]",1,0,5,5,18,,,,,5,0,5,0,down,0.116909523378,DN,m,27,59.988302206,Set,2017_12_20_1935,
"[2.6, 2.6]",5,0,6,6,4,,,,,0,0,0,0,left,0.308619762654,DN,m,27,59.988302206,Set,2017_12_20_1935,
"[2.6, 2.6]",5,0,6,6,4,,,,,1,0,1,0,left,0.408788395231,DN,m,27,59.988302206,Set,2017_12_20_1935,
"[2.6, 2.6]",5,0,6,6,4,,,,,2,0,2,0,left,0.275467983098,DN,m,27,59.988302206,Set,2017_12_20_1935,
"[2.6, 2.6]",5,0,6,6,4,,,,,3,0,3,0,down,0.3254549962,DN,m,27,59.988302206,Set,2017_12_20_1935,
"[2.6, 2.6]",5,0,6,6,4,,,,,4,0,4,0,down,0.475461035618,DN,m,27,59.988302206,Set,2017_12_20_1935,
"[2.6, 2.6]",2,0,7,7,1,,,,,0,0,0,0,down,0.292127162917,DN,m,27,59.988302206,Set,2017_12_20_1935,
"[2.6, 2.6]",2,0,7,7,1,,,,,1,0,1,0,down,0.358787171543,DN,m,27,59.988302206,Set,2017_12_20_1935,
"[2.6, 2.6]",6,0,8,8,5,,,,,0,0,0,0,down,0.0254713384202,DN,m,27,59.988302206,Set,2017_12_20_1935,
"[2.6, 2.6]",6,0,8,8,5,,,,,1,0,1,0,down,0.792111768038,DN,m,27,59.988302206,Set,2017_12_20_1935,
"[3.0, 3.0]",5,0,9,9,28,,,,,0,0,0,0,left,0.333570440067,DN,m,27,59.988302206,Set,2017_12_20_1935,
"[3.0, 3.0]",5,0,9,9,28,,,,,1,0,1,0,left,0.725474259467,DN,m,27,59.988302206,Set,2017_12_20_1935,
"[3.0, 3.0]",5,0,9,9,28,,,,,2,0,2,0,left,0.308814369142,DN,m,27,59.988302206,Set,2017_12_20_1935,
"[3.0, 3.0]",5,0,9,9,28,,,,,3,0,3,0,down,0.342128781253,DN,m,27,59.988302206,Set,2017_12_20_1935,
"[3.0, 3.0]",5,0,9,9,28,,,,,4,0,4,0,left,0.525453180308,DN,m,27,59.988302206,Set,2017_12_20_1935,
"[3.0, 3.0]",5,0,9,9,28,,,,,5,0,5,0,left,0.308776868857,DN,m,27,59.988302206,Set,2017_12_20_1935,
"[3.0, 3.0]",5,0,9,9,28,,,,,6,0,6,0,left,0.425453496166,DN,m,27,59.988302206,Set,2017_12_20_1935,
"[3.0, 3.0]",5,0,9,9,28,,,,,7,0,7,0,left,0.275457325159,DN,m,27,59.988302206,Set,2017_12_20_1935,
"[3.0, 3.0]",5,0,9,9,28,,,,,8,0,8,0,down,0.592135689221,DN,m,27,59.988302206,Set,2017_12_20_1935,
"[3.0, 3.0]",5,0,9,9,28,,,,,9,0,9,0,left,0.375436877715,DN,m,27,59.988302206,Set,2017_12_20_1935,
"[3.0, 3.0]",5,0,9,9,28,,,,,10,0,10,0,down,0.358794276952,DN,m,27,59.988302206,Set,2017_12_20_1935,
"[3.0, 3.0]",5,0,9,9,28,,,,,11,0,11,0,down,0.342120491783,DN,m,27,59.988302206,Set,2017_12_20_1935,
"[2.9, 2.9]",3,0,10,10,20,,,,,0,0,0,0,down,0.633572255843,DN,m,27,59.988302206,Set,2017_12_20_1935,
"[2.9, 2.9]",3,0,10,10,20,,,,,1,0,1,0,left,1.42545033828,DN,m,27,59.988302206,Set,2017_12_20_1935,
"[2.9, 2.9]",3,0,10,10,20,,,,,2,0,2,0,down,0.708786263713,DN,m,27,59.988302206,Set,2017_12_20_1935,
"[2.9, 2.9]",3,0,10,10,20,,,,,3,0,3,0,left,0.358795461128,DN,m,27,59.988302206,Set,2017_12_20_1935,
"[2.9, 2.9]",3,0,10,10,20,,,,,4,0,4,0,left,0.27547114098,DN,m,27,59.988302206,Set,2017_12_20_1935,
"[2.9, 2.9]",3,0,10,10,20,,,,,5,0,5,0,left,0.725415838067,DN,m,27,59.988302206,Set,2017_12_20_1935,
"[2.9, 2.9]",3,0,10,10,20,,,,,6,0,6,0,left,0.608798816451,DN,m,27,59.988302206,Set,2017_12_20_1935,
"[2.9, 2.9]",3,0,10,10,20,,,,,7,0,7,0,left,0.825439996086,DN,m,27,59.988302206,Set,2017_12_20_1935,
"[2.9, 2.9]",3,0,10,10,20,,,,,8,0,8,0,down,0.592113189166,DN,m,27,59.988302206,Set,2017_12_20_1935,
"[2.9, 2.9]",3,0,10,10,20,,,,,9,0,9,0,down,0.408780500526,DN,m,27,59.988302206,Set,2017_12_20_1935,
"[2.7, 2.7]",4,0,11,11,9,,,,,0,0,0,0,down,0.333582676947,DN,m,27,59.988302206,Set,2017_12_20_1935,
"[2.7, 2.7]",4,0,11,11,9,,,,,1,0,1,0,left,0.475478009437,DN,m,27,59.988302206,Set,2017_12_20_1935,
"[2.7, 2.7]",4,0,11,11,9,,,,,2,0,2,0,left,0.275329824304,DN,m,27,59.988302206,Set,2017_12_20_1935,
"[2.7, 2.7]",4,0,11,11,9,,,,,3,0,3,0,left,0.208785474184,DN,m,27,59.988302206,Set,2017_12_20_1935,
"[2.7, 2.7]",4,0,11,11,9,,,,,4,0,4,0,left,0.25878117152,DN,m,27,59.988302206,Set,2017_12_20_1935,
"[2.7, 2.7]",4,0,11,11,9,,,,,5,0,5,0,left,0.275456535746,DN,m,27,59.988302206,Set,2017_12_20_1935,
"[2.7, 2.7]",4,0,11,11,9,,,,,6,0,6,0,left,0.292128347093,DN,m,27,59.988302206,Set,2017_12_20_1935,
"[2.7, 2.7]",4,0,11,11,9,,,,,7,0,7,0,left,0.308768184623,DN,m,27,59.988302206,Set,2017_12_20_1935,
"[2.7, 2.7]",4,0,11,11,9,,,,,8,0,8,0,down,0.325458154082,DN,m,27,59.988302206,Set,2017_12_20_1935,
"[2.7, 2.7]",4,0,11,11,9,,,,,9,0,9,0,right,0.325428943383,DN,m,27,59.988302206,Set,2017_12_20_1935,
"[2.7, 2.7]",4,0,11,11,9,,,,,10,0,10,0,down,0.492139952374,DN,m,27,59.988302206,Set,2017_12_20_1935,
"[2.7, 2.7]",4,0,11,11,9,,,,,11,0,11,0,left,0.225492417347,DN,m,27,59.988302206,Set,2017_12_20_1935,
"[2.7, 2.7]",4,0,11,11,9,,,,,12,0,12,0,down,0.242128702346,DN,m,27,59.988302206,Set,2017_12_20_1935,
"[2.7, 2.7]",4,0,11,11,9,,,,,13,0,13,0,down,0.425475206808,DN,m,27,59.988302206,Set,2017_12_20_1935,
"[2.8, 2.8]",6,0,12,12,17,,,,,0,0,0,0,down,0.308811605908,DN,m,27,59.988302206,Set,2017_12_20_1935,
"[2.8, 2.8]",6,0,12,12,17,,,,,1,0,1,0,down,0.0920922679361,DN,m,27,59.988302206,Set,2017_12_20_1935,
"[2.8, 2.8]",1,0,13,13,12,,,,,0,0,0,0,left,0.392119347001,DN,m,27,59.988302206,Set,2017_12_20_1935,
"[2.8, 2.8]",1,0,13,13,12,,,,,1,0,1,0,down,0.108786184806,DN,m,27,59.988302206,Set,2017_12_20_1935,
"[2.8, 2.8]",1,0,13,13,12,,,,,2,0,2,0,down,0.108791711042,DN,m,27,59.988302206,Set,2017_12_20_1935,
"[2.8, 2.8]",2,0,14,14,13,,,,,0,0,0,0,down,0.100242448738,DN,m,27,59.988302206,Set,2017_12_20_1935,
"[2.8, 2.8]",2,0,14,14,13,,,,,1,0,1,0,left,0.192155505065,DN,m,27,59.988302206,Set,2017_12_20_1935,
"[2.8, 2.8]",2,0,14,14,13,,,,,2,0,2,0,down,0.425429417053,DN,m,27,59.988302206,Set,2017_12_20_1935,
"[2.8, 2.8]",2,0,14,14,13,,,,,3,0,3,0,left,0.47547287785,DN,m,27,59.988302206,Set,2017_12_20_1935,
"[2.8, 2.8]",2,0,14,14,13,,,,,4,0,4,0,left,0.375482667354,DN,m,27,59.988302206,Set,2017_12_20_1935,
"[2.8, 2.8]",2,0,14,14,13,,,,,5,0,5,0,down,0.308786342619,DN,m,27,59.988302206,Set,2017_12_20_1935,
"[2.8, 2.8]",2,0,14,14,13,,,,,6,0,6,0,down,0.208790211123,DN,m,27,59.988302206,Set,2017_12_20_1935,
"[3.0, 3.0]",2,0,15,15,25,,,,,0,0,0,0,left,0.242134623462,DN,m,27,59.988302206,Set,2017_12_20_1935,
"[3.0, 3.0]",2,0,15,15,25,,,,,1,0,1,0,left,0.342133123428,DN,m,27,59.988302206,Set,2017_12_20_1935,
"[3.0, 3.0]",2,0,15,15,25,,,,,2,0,2,0,left,0.242118439171,DN,m,27,59.988302206,Set,2017_12_20_1935,
"[3.0, 3.0]",2,0,15,15,25,,,,,3,0,3,0,down,0.375483851647,DN,m,27,59.988302206,Set,2017_12_20_1935,
"[3.0, 3.0]",2,0,15,15,25,,,,,4,0,4,0,left,0.292112557567,DN,m,27,59.988302206,Set,2017_12_20_1935,
"[3.0, 3.0]",2,0,15,15,25,,,,,5,0,5,0,left,0.292129926034,DN,m,27,59.988302206,Set,2017_12_20_1935,
"[3.0, 3.0]",2,0,15,15,25,,,,,6,0,6,0,down,0.225468733115,DN,m,27,59.988302206,Set,2017_12_20_1935,
"[3.0, 3.0]",2,0,15,15,25,,,,,7,0,7,0,down,0.217104998301,DN,m,27,59.988302206,Set,2017_12_20_1935,
"[2.7, 2.7]",1,0,16,16,6,,,,,0,0,0,0,left,0.233578255866,DN,m,27,59.988302206,Set,2017_12_20_1935,
"[2.7, 2.7]",1,0,16,16,6,,,,,1,0,1,0,down,0.408793921582,DN,m,27,59.988302206,Set,2017_12_20_1935,
"[2.7, 2.7]",1,0,16,16,6,,,,,2,0,2,0,down,0.375461351476,DN,m,27,59.988302206,Set,2017_12_20_1935,
"[3.0, 3.0]",1,0,17,17,24,,,,,0,0,0,0,down,0.350250146235,DN,m,27,59.988302206,Set,2017_12_20_1935,
"[3.0, 3.0]",1,0,17,17,24,,,,,1,0,1,0,down,0.358810066478,DN,m,27,59.988302206,Set,2017_12_20_1935,
"[3.0, 3.0]",1,0,17,17,24,,,,,2,0,2,0,left,0.242125544464,DN,m,27,59.988302206,Set,2017_12_20_1935,
"[3.0, 3.0]",1,0,17,17,24,,,,,3,0,3,0,down,0.842112991726,DN,m,27,59.988302206,Set,2017_12_20_1935,
"[3.0, 3.0]",1,0,17,17,24,,,,,4,0,4,0,down,0.342152860481,DN,m,27,59.988302206,Set,2017_12_20_1935,
"[2.9, 2.9]",2,0,18,18,19,,,,,0,0,0,0,down,0.375429772423,DN,m,27,59.988302206,Set,2017_12_20_1935,
"[2.9, 2.9]",2,0,18,18,19,,,,,1,0,1,0,down,0.0754666409921,DN,m,27,59.988302206,Set,2017_12_20_1935,
"[2.9, 2.9]",2,0,18,18,19,,,,,2,0,2,0,left,0.225458075176,DN,m,27,59.988302206,Set,2017_12_20_1935,
"[2.9, 2.9]",2,0,18,18,19,,,,,3,0,3,0,down,0.192133399774,DN,m,27,59.988302206,Set,2017_12_20_1935,
"[2.9, 2.9]",2,0,18,18,19,,,,,4,0,4,0,left,0.392181715928,DN,m,27,59.988302206,Set,2017_12_20_1935,
"[2.9, 2.9]",2,0,18,18,19,,,,,5,0,5,0,left,0.192129452364,DN,m,27,59.988302206,Set,2017_12_20_1935,
"[2.9, 2.9]",2,0,18,18,19,,,,,6,0,6,0,down,0.292092030984,DN,m,27,59.988302206,Set,2017_12_20_1935,
"[2.9, 2.9]",2,0,18,18,19,,,,,7,0,7,0,down,0.292131505092,DN,m,27,59.988302206,Set,2017_12_20_1935,
"[2.9, 2.9]",2,0,18,18,19,,,,,8,0,8,0,left,0.392124478589,DN,m,27,59.988302206,Set,2017_12_20_1935,
"[2.9, 2.9]",2,0,18,18,19,,,,,9,0,9,0,right,0.342139439192,DN,m,27,59.988302206,Set,2017_12_20_1935,
"[2.9, 2.9]",2,0,18,18,19,,,,,10,0,10,0,down,0.475462219911,DN,m,27,59.988302206,Set,2017_12_20_1935,
"[2.9, 2.9]",2,0,18,18,19,,,,,11,0,11,0,left,0.342116544372,DN,m,27,59.988302206,Set,2017_12_20_1935,
"[2.9, 2.9]",2,0,18,18,19,,,,,12,0,12,0,down,0.292107031215,DN,m,27,59.988302206,Set,2017_12_20_1935,
"[2.9, 2.9]",2,0,18,18,19,,,,,13,0,13,0,left,0.308770553092,DN,m,27,59.988302206,Set,2017_12_20_1935,
"[2.9, 2.9]",2,0,18,18,19,,,,,14,0,14,0,down,0.408836158691,DN,m,27,59.988302206,Set,2017_12_20_1935,
"[2.9, 2.9]",2,0,18,18,19,,,,,15,0,15,0,down,0.425487443805,DN,m,27,59.988302206,Set,2017_12_20_1935,
"[2.9, 2.9]",2,0,18,18,19,,,,,16,0,16,0,left,0.358784803189,DN,m,27,59.988302206,Set,2017_12_20_1935,
"[2.9, 2.9]",2,0,18,18,19,,,,,17,0,17,0,down,0.292124005035,DN,m,27,59.988302206,Set,2017_12_20_1935,
"[2.9, 2.9]",2,0,18,18,19,,,,,18,0,18,0,down,0.142121123383,DN,m,27,59.988302206,Set,2017_12_20_1935,
"[2.9, 2.9]",5,0,19,19,22,,,,,0,0,0,0,down,0.175452904077,DN,m,27,59.988302206,Set,2017_12_20_1935,
"[2.9, 2.9]",5,0,19,19,22,,,,,1,0,1,0,down,0.0421482814709,DN,m,27,59.988302206,Set,2017_12_20_1935,
"[2.6, 2.6]",4,0,20,20,3,,,,,0,0,0,0,down,0.00029802811332,DN,m,27,59.988302206,Set,2017_12_20_1935,
"[2.6, 2.6]",4,0,20,20,3,,,,,1,0,1,0,down,0.21690802346,DN,m,27,59.988302206,Set,2017_12_20_1935,
"[2.6, 2.6]",4,0,20,20,3,,,,,2,0,2,0,left,0.34211575496,DN,m,27,59.988302206,Set,2017_12_20_1935,
"[2.6, 2.6]",4,0,20,20,3,,,,,3,0,3,0,left,0.225465180469,DN,m,27,59.988302206,Set,2017_12_20_1935,
"[2.6, 2.6]",4,0,20,20,3,,,,,4,0,4,0,down,0.142136912909,DN,m,27,59.988302206,Set,2017_12_20_1935,
"[2.6, 2.6]",4,0,20,20,3,,,,,5,0,5,0,down,0.242133439169,DN,m,27,59.988302206,Set,2017_12_20_1935,
"[2.6, 2.6]",4,0,20,20,3,,,,,6,0,6,0,left,0.358814013889,DN,m,27,59.988302206,Set,2017_12_20_1935,
"[2.6, 2.6]",4,0,20,20,3,,,,,7,0,7,0,down,0.0921175312251,DN,m,27,59.988302206,Set,2017_12_20_1935,
"[2.6, 2.6]",4,0,20,20,3,,,,,8,0,8,0,down,0.0754563778173,DN,m,27,59.988302206,Set,2017_12_20_1935,
"[3.0, 3.0]",6,0,21,21,29,,,,,0,0,0,0,down,1.08357576909,DN,m,27,59.988302206,Set,2017_12_20_1935,
"[3.0, 3.0]",6,0,21,21,29,,,,,1,0,1,0,down,0.108809869154,DN,m,27,59.988302206,Set,2017_12_20_1935,
"[2.7, 2.7]",2,0,22,22,7,,,,,0,0,0,0,left,0.73356996628,DN,m,27,59.988302206,Set,2017_12_20_1935,
"[2.7, 2.7]",2,0,22,22,7,,,,,1,0,1,0,down,0.342139439308,DN,m,27,59.988302206,Set,2017_12_20_1935,
"[2.7, 2.7]",2,0,22,22,7,,,,,2,0,2,0,down,0.192118004896,DN,m,27,59.988302206,Set,2017_12_20_1935,
"[2.7, 2.7]",3,0,23,23,8,,,,,0,0,0,0,down,0.192110899603,DN,m,27,59.988302206,Set,2017_12_20_1935,
"[2.7, 2.7]",3,0,23,23,8,,,,,1,0,1,0,down,0.142118360149,DN,m,27,59.988302206,Set,2017_12_20_1935,
"[3.0, 3.0]",4,0,24,24,27,,,,,0,0,0,0,down,0.575472956756,DN,m,27,59.988302206,Set,2017_12_20_1935,
"[3.0, 3.0]",4,0,24,24,27,,,,,1,0,1,0,left,0.775455746101,DN,m,27,59.988302206,Set,2017_12_20_1935,
"[3.0, 3.0]",4,0,24,24,27,,,,,2,0,2,0,left,0.375450693537,DN,m,27,59.988302206,Set,2017_12_20_1935,
"[3.0, 3.0]",4,0,24,24,27,,,,,3,0,3,0,left,0.42547086475,DN,m,27,59.988302206,Set,2017_12_20_1935,
"[3.0, 3.0]",4,0,24,24,27,,,,,4,0,4,0,down,0.458794750622,DN,m,27,59.988302206,Set,2017_12_20_1935,
"[3.0, 3.0]",4,0,24,24,27,,,,,5,0,5,0,left,0.408789579524,DN,m,27,59.988302206,Set,2017_12_20_1935,
"[3.0, 3.0]",4,0,24,24,27,,,,,6,0,6,0,down,0.175471062073,DN,m,27,59.988302206,Set,2017_12_20_1935,
"[3.0, 3.0]",4,0,24,24,27,,,,,7,0,7,0,left,0.308786737383,DN,m,27,59.988302206,Set,2017_12_20_1935,
"[3.0, 3.0]",4,0,24,24,27,,,,,8,0,8,0,left,0.192100241664,DN,m,27,59.988302206,Set,2017_12_20_1935,
"[3.0, 3.0]",4,0,24,24,27,,,,,9,0,9,0,left,0.192123926012,DN,m,27,59.988302206,Set,2017_12_20_1935,
"[3.0, 3.0]",4,0,24,24,27,,,,,10,0,10,0,down,0.308869632543,DN,m,27,59.988302206,Set,2017_12_20_1935,
"[3.0, 3.0]",4,0,24,24,27,,,,,11,0,11,0,left,0.142136518261,DN,m,27,59.988302206,Set,2017_12_20_1935,
"[3.0, 3.0]",4,0,24,24,27,,,,,12,0,12,0,down,0.175467509311,DN,m,27,59.988302206,Set,2017_12_20_1935,
"[3.0, 3.0]",4,0,24,24,27,,,,,13,0,13,0,left,0.192119189189,DN,m,27,59.988302206,Set,2017_12_20_1935,
"[3.0, 3.0]",4,0,24,24,27,,,,,14,0,14,0,down,0.108796053333,DN,m,27,59.988302206,Set,2017_12_20_1935,
"[3.0, 3.0]",4,0,24,24,27,,,,,15,0,15,0,down,0.0754721673438,DN,m,27,59.988302206,Set,2017_12_20_1935,
"[2.7, 2.7]",5,0,25,25,10,,,,,0,0,0,0,left,0.450246672495,DN,m,27,59.988302206,Set,2017_12_20_1935,
"[2.7, 2.7]",5,0,25,25,10,,,,,1,0,1,0,down,0.358817961183,DN,m,27,59.988302206,Set,2017_12_20_1935,
"[2.7, 2.7]",5,0,25,25,10,,,,,2,0,2,0,down,0.825427364442,DN,m,27,59.988302206,Set,2017_12_20_1935,
"[2.8, 2.8]",4,0,26,26,15,,,,,0,0,0,0,left,0.31691441813,DN,m,27,59.988302206,Set,2017_12_20_1935,
"[2.8, 2.8]",4,0,26,26,15,,,,,1,0,1,0,left,0.425438890816,DN,m,27,59.988302206,Set,2017_12_20_1935,
"[2.8, 2.8]",4,0,26,26,15,,,,,2,0,2,0,down,0.292122031329,DN,m,27,59.988302206,Set,2017_12_20_1935,
"[2.8, 2.8]",4,0,26,26,15,,,,,3,0,3,0,down,0.342112991726,DN,m,27,59.988302206,Set,2017_12_20_1935,
"[2.7, 2.7]",6,0,27,27,11,,,,,0,0,0,0,down,0.358839671942,DN,m,27,59.988302206,Set,2017_12_20_1935,
"[2.7, 2.7]",6,0,27,27,11,,,,,1,0,1,0,down,0.22547899629,DN,m,27,59.988302206,Set,2017_12_20_1935,
"[2.8, 2.8]",3,0,28,28,14,,,,,0,0,0,0,down,0.342119307606,DN,m,27,59.988302206,Set,2017_12_20_1935,
"[2.8, 2.8]",3,0,28,28,14,,,,,1,0,1,0,down,0.342179702595,DN,m,27,59.988302206,Set,2017_12_20_1935,
"[2.8, 2.8]",5,0,29,29,16,,,,,0,0,0,0,down,0.466916905018,DN,m,27,59.988302206,Set,2017_12_20_1935,
"[2.8, 2.8]",5,0,29,29,16,,,,,1,0,1,0,down,0.158824119251,DN,m,27,59.988302206,Set,2017_12_20_1935,
