size,n,trials_2.thisRepN,trials_2.thisTrialN,trials_2.thisN,trials_2.thisIndex,trials.thisRepN,trials.thisTrialN,trials.thisN,trials.thisIndex,trials_3.thisRepN,trials_3.thisTrialN,trials_3.thisN,trials_3.thisIndex,answer.keys,answer.rt,participant,gender,age,frameRate,expName,date,
"[3.0, 3.0]",1,0,0,0,24,,,,,0,0,0,0,down,15.2586659077,EU,f,18,59.995689757,Set,2017_12_14_2021,
"[3.0, 3.0]",1,0,0,0,24,,,,,1,0,1,0,right,12.1920410308,EU,f,18,59.995689757,Set,2017_12_14_2021,
"[3.0, 3.0]",1,0,0,0,24,,,,,2,0,2,0,down,2.12544773296,EU,f,18,59.995689757,Set,2017_12_14_2021,
"[3.0, 3.0]",1,0,0,0,24,,,,,3,0,3,0,down,4.94215728148,EU,f,18,59.995689757,Set,2017_12_14_2021,
"[2.7, 2.7]",2,0,1,1,7,,,,,0,0,0,0,down,0.82546723308,EU,f,18,59.995689757,Set,2017_12_14_2021,
"[2.7, 2.7]",2,0,1,1,7,,,,,1,0,1,0,down,3.43354722936,EU,f,18,59.995689757,Set,2017_12_14_2021,
"[2.6, 2.6]",4,0,2,2,3,,,,,0,0,0,0,right,1.75878472421,EU,f,18,59.995689757,Set,2017_12_14_2021,
"[2.6, 2.6]",4,0,2,2,3,,,,,1,0,1,0,down,1.45027312006,EU,f,18,59.995689757,Set,2017_12_14_2021,
"[2.6, 2.6]",4,0,2,2,3,,,,,2,0,2,0,down,5.12541575909,EU,f,18,59.995689757,Set,2017_12_14_2021,
"[2.6, 2.6]",4,0,2,2,3,,,,,3,0,3,0,right,2.02546699625,EU,f,18,59.995689757,Set,2017_12_14_2021,
"[2.6, 2.6]",4,0,2,2,3,,,,,4,0,4,0,down,1.40895142261,EU,f,18,59.995689757,Set,2017_12_14_2021,
"[2.6, 2.6]",4,0,2,2,3,,,,,5,0,5,0,down,0.625499049071,EU,f,18,59.995689757,Set,2017_12_14_2021,
"[2.9, 2.9]",6,0,3,3,23,,,,,0,0,0,0,right,6.12539246949,EU,f,18,59.995689757,Set,2017_12_14_2021,
"[2.9, 2.9]",6,0,3,3,23,,,,,1,0,1,0,right,1.01689404962,EU,f,18,59.995689757,Set,2017_12_14_2021,
"[2.9, 2.9]",6,0,3,3,23,,,,,2,0,2,0,left,1.42551231231,EU,f,18,59.995689757,Set,2017_12_14_2021,
"[2.9, 2.9]",6,0,3,3,23,,,,,3,0,3,0,left,2.07546229885,EU,f,18,59.995689757,Set,2017_12_14_2021,
"[2.9, 2.9]",6,0,3,3,23,,,,,4,0,4,0,down,0.858813224404,EU,f,18,59.995689757,Set,2017_12_14_2021,
"[2.9, 2.9]",6,0,3,3,23,,,,,5,0,5,0,right,5.37541398278,EU,f,18,59.995689757,Set,2017_12_14_2021,
"[2.9, 2.9]",6,0,3,3,23,,,,,6,0,6,0,down,0.958820408647,EU,f,18,59.995689757,Set,2017_12_14_2021,
"[2.9, 2.9]",6,0,3,3,23,,,,,7,0,7,0,down,0.675471062059,EU,f,18,59.995689757,Set,2017_12_14_2021,
"[2.9, 2.9]",6,0,3,3,23,,,,,8,0,8,0,left,1.12548010159,EU,f,18,59.995689757,Set,2017_12_14_2021,
"[2.9, 2.9]",6,0,3,3,23,,,,,9,0,9,0,down,1.23358970332,EU,f,18,59.995689757,Set,2017_12_14_2021,
"[2.9, 2.9]",6,0,3,3,23,,,,,10,0,10,0,right,0.542114333846,EU,f,18,59.995689757,Set,2017_12_14_2021,
"[2.9, 2.9]",6,0,3,3,23,,,,,11,0,11,0,right,0.892112241738,EU,f,18,59.995689757,Set,2017_12_14_2021,
"[2.9, 2.9]",6,0,3,3,23,,,,,12,0,12,0,left,0.908850369364,EU,f,18,59.995689757,Set,2017_12_14_2021,
"[2.9, 2.9]",6,0,3,3,23,,,,,13,0,13,0,right,1.15879530324,EU,f,18,59.995689757,Set,2017_12_14_2021,
"[2.9, 2.9]",6,0,3,3,23,,,,,14,0,14,0,left,0.63356120314,EU,f,18,59.995689757,Set,2017_12_14_2021,
"[2.9, 2.9]",6,0,3,3,23,,,,,15,0,15,0,left,0.542149465633,EU,f,18,59.995689757,Set,2017_12_14_2021,
"[2.9, 2.9]",6,0,3,3,23,,,,,16,0,16,0,right,0.75881432966,EU,f,18,59.995689757,Set,2017_12_14_2021,
"[2.9, 2.9]",6,0,3,3,23,,,,,17,0,17,0,right,0.916904628641,EU,f,18,59.995689757,Set,2017_12_14_2021,
"[2.9, 2.9]",6,0,3,3,23,,,,,18,0,18,0,down,0.925440864507,EU,f,18,59.995689757,Set,2017_12_14_2021,
"[2.9, 2.9]",6,0,3,3,23,,,,,19,0,19,0,down,0.758792224282,EU,f,18,59.995689757,Set,2017_12_14_2021,
"[2.9, 2.9]",3,0,4,4,20,,,,,0,0,0,0,left,3.25023940935,EU,f,18,59.995689757,Set,2017_12_14_2021,
"[2.9, 2.9]",3,0,4,4,20,,,,,1,0,1,0,down,0.825450259304,EU,f,18,59.995689757,Set,2017_12_14_2021,
"[2.9, 2.9]",3,0,4,4,20,,,,,2,0,2,0,right,0.916899497024,EU,f,18,59.995689757,Set,2017_12_14_2021,
"[2.9, 2.9]",3,0,4,4,20,,,,,3,0,3,0,left,1.52543857503,EU,f,18,59.995689757,Set,2017_12_14_2021,
"[2.9, 2.9]",3,0,4,4,20,,,,,4,0,4,0,right,1.12548839112,EU,f,18,59.995689757,Set,2017_12_14_2021,
"[2.9, 2.9]",3,0,4,4,20,,,,,5,0,5,0,left,0.708835606114,EU,f,18,59.995689757,Set,2017_12_14_2021,
"[2.9, 2.9]",3,0,4,4,20,,,,,6,0,6,0,left,0.533578097966,EU,f,18,59.995689757,Set,2017_12_14_2021,
"[2.9, 2.9]",3,0,4,4,20,,,,,7,0,7,0,right,0.492120215466,EU,f,18,59.995689757,Set,2017_12_14_2021,
"[2.9, 2.9]",3,0,4,4,20,,,,,8,0,8,0,down,0.725454917221,EU,f,18,59.995689757,Set,2017_12_14_2021,
"[2.9, 2.9]",3,0,4,4,20,,,,,9,0,9,0,right,1.34212759709,EU,f,18,59.995689757,Set,2017_12_14_2021,
"[2.9, 2.9]",3,0,4,4,20,,,,,10,0,10,0,left,0.77546087779,EU,f,18,59.995689757,Set,2017_12_14_2021,
"[2.9, 2.9]",3,0,4,4,20,,,,,11,0,11,0,down,1.62546746993,EU,f,18,59.995689757,Set,2017_12_14_2021,
"[2.9, 2.9]",3,0,4,4,20,,,,,12,0,12,0,left,2.2254939964,EU,f,18,59.995689757,Set,2017_12_14_2021,
"[2.9, 2.9]",3,0,4,4,20,,,,,13,0,13,0,down,1.25880051379,EU,f,18,59.995689757,Set,2017_12_14_2021,
"[2.9, 2.9]",3,0,4,4,20,,,,,14,0,14,0,down,0.592130952369,EU,f,18,59.995689757,Set,2017_12_14_2021,
"[2.9, 2.9]",3,0,4,4,20,,,,,15,0,15,0,left,0.492128110243,EU,f,18,59.995689757,Set,2017_12_14_2021,
"[2.9, 2.9]",3,0,4,4,20,,,,,16,0,16,0,right,0.50025815946,EU,f,18,59.995689757,Set,2017_12_14_2021,
"[2.9, 2.9]",3,0,4,4,20,,,,,17,0,17,0,right,0.758778408388,EU,f,18,59.995689757,Set,2017_12_14_2021,
"[2.9, 2.9]",3,0,4,4,20,,,,,18,0,18,0,down,1.24207896521,EU,f,18,59.995689757,Set,2017_12_14_2021,
"[2.9, 2.9]",3,0,4,4,20,,,,,19,0,19,0,left,0.658815040195,EU,f,18,59.995689757,Set,2017_12_14_2021,
"[2.9, 2.9]",3,0,4,4,20,,,,,20,0,20,0,right,0.675465930457,EU,f,18,59.995689757,Set,2017_12_14_2021,
"[2.9, 2.9]",3,0,4,4,20,,,,,21,0,21,0,right,1.37551464127,EU,f,18,59.995689757,Set,2017_12_14_2021,
"[2.9, 2.9]",3,0,4,4,20,,,,,22,0,22,0,down,1.25023269877,EU,f,18,59.995689757,Set,2017_12_14_2021,
"[2.9, 2.9]",3,0,4,4,20,,,,,23,0,23,0,down,1.26688398377,EU,f,18,59.995689757,Set,2017_12_14_2021,
"[2.6, 2.6]",5,0,5,5,4,,,,,0,0,0,0,down,2.6587767505,EU,f,18,59.995689757,Set,2017_12_14_2021,
"[2.6, 2.6]",5,0,5,5,4,,,,,1,0,1,0,down,1.20876573726,EU,f,18,59.995689757,Set,2017_12_14_2021,
"[3.0, 3.0]",2,0,6,6,25,,,,,0,0,0,0,left,0.575410982754,EU,f,18,59.995689757,Set,2017_12_14_2021,
"[3.0, 3.0]",2,0,6,6,25,,,,,1,0,1,0,down,1.19211287331,EU,f,18,59.995689757,Set,2017_12_14_2021,
"[3.0, 3.0]",2,0,6,6,25,,,,,2,0,2,0,down,0.592140820852,EU,f,18,59.995689757,Set,2017_12_14_2021,
"[2.8, 2.8]",2,0,7,7,13,,,,,0,0,0,0,left,0.542135649768,EU,f,18,59.995689757,Set,2017_12_14_2021,
"[2.8, 2.8]",2,0,7,7,13,,,,,1,0,1,0,down,0.875457798815,EU,f,18,59.995689757,Set,2017_12_14_2021,
"[2.8, 2.8]",2,0,7,7,13,,,,,2,0,2,0,right,0.758793803223,EU,f,18,59.995689757,Set,2017_12_14_2021,
"[2.8, 2.8]",2,0,7,7,13,,,,,3,0,3,0,down,0.758629591714,EU,f,18,59.995689757,Set,2017_12_14_2021,
"[2.8, 2.8]",2,0,7,7,13,,,,,4,0,4,0,left,0.692113662793,EU,f,18,59.995689757,Set,2017_12_14_2021,
"[2.8, 2.8]",2,0,7,7,13,,,,,5,0,5,0,left,1.3254834174,EU,f,18,59.995689757,Set,2017_12_14_2021,
"[2.8, 2.8]",2,0,7,7,13,,,,,6,0,6,0,down,2.22535425873,EU,f,18,59.995689757,Set,2017_12_14_2021,
"[2.8, 2.8]",2,0,7,7,13,,,,,7,0,7,0,down,3.28359645334,EU,f,18,59.995689757,Set,2017_12_14_2021,
"[2.8, 2.8]",2,0,7,7,13,,,,,8,0,8,0,left,0.716999997632,EU,f,18,59.995689757,Set,2017_12_14_2021,
"[2.8, 2.8]",2,0,7,7,13,,,,,9,0,9,0,left,3.02545712776,EU,f,18,59.995689757,Set,2017_12_14_2021,
"[2.8, 2.8]",2,0,7,7,13,,,,,10,0,10,0,down,0.792116110184,EU,f,18,59.995689757,Set,2017_12_14_2021,
"[2.8, 2.8]",2,0,7,7,13,,,,,11,0,11,0,down,0.666915483962,EU,f,18,59.995689757,Set,2017_12_14_2021,
"[2.7, 2.7]",6,0,8,8,11,,,,,0,0,0,0,down,0.850321199308,EU,f,18,59.995689757,Set,2017_12_14_2021,
"[2.7, 2.7]",6,0,8,8,11,,,,,1,0,1,0,left,0.542124597079,EU,f,18,59.995689757,Set,2017_12_14_2021,
"[2.7, 2.7]",6,0,8,8,11,,,,,2,0,2,0,left,0.842118518092,EU,f,18,59.995689757,Set,2017_12_14_2021,
"[2.7, 2.7]",6,0,8,8,11,,,,,3,0,3,0,down,0.825479470004,EU,f,18,59.995689757,Set,2017_12_14_2021,
"[2.7, 2.7]",6,0,8,8,11,,,,,4,0,4,0,down,1.07552940452,EU,f,18,59.995689757,Set,2017_12_14_2021,
"[2.9, 2.9]",4,0,9,9,21,,,,,0,0,0,0,down,0.425460206738,EU,f,18,59.995689757,Set,2017_12_14_2021,
"[2.9, 2.9]",4,0,9,9,21,,,,,1,0,1,0,down,0.758776039962,EU,f,18,59.995689757,Set,2017_12_14_2021,
"[2.9, 2.9]",4,0,9,9,21,,,,,2,0,2,0,left,0.708801658533,EU,f,18,59.995689757,Set,2017_12_14_2021,
"[2.9, 2.9]",4,0,9,9,21,,,,,3,0,3,0,down,2.89209724164,EU,f,18,59.995689757,Set,2017_12_14_2021,
"[2.9, 2.9]",4,0,9,9,21,,,,,4,0,4,0,down,0.608827237636,EU,f,18,59.995689757,Set,2017_12_14_2021,
"[2.7, 2.7]",3,0,10,10,8,,,,,0,0,0,0,left,0.692116031234,EU,f,18,59.995689757,Set,2017_12_14_2021,
"[2.7, 2.7]",3,0,10,10,8,,,,,1,0,1,0,down,1.09213726821,EU,f,18,59.995689757,Set,2017_12_14_2021,
"[2.7, 2.7]",3,0,10,10,8,,,,,2,0,2,0,left,0.508802684853,EU,f,18,59.995689757,Set,2017_12_14_2021,
"[2.7, 2.7]",3,0,10,10,8,,,,,3,0,3,0,left,0.425487838482,EU,f,18,59.995689757,Set,2017_12_14_2021,
"[2.7, 2.7]",3,0,10,10,8,,,,,4,0,4,0,left,0.616967550071,EU,f,18,59.995689757,Set,2017_12_14_2021,
"[2.7, 2.7]",3,0,10,10,8,,,,,5,0,5,0,down,0.808817132303,EU,f,18,59.995689757,Set,2017_12_14_2021,
"[2.7, 2.7]",3,0,10,10,8,,,,,6,0,6,0,left,0.516899575974,EU,f,18,59.995689757,Set,2017_12_14_2021,
"[2.7, 2.7]",3,0,10,10,8,,,,,7,0,7,0,down,0.975470114689,EU,f,18,59.995689757,Set,2017_12_14_2021,
"[2.7, 2.7]",3,0,10,10,8,,,,,8,0,8,0,down,0.600189159042,EU,f,18,59.995689757,Set,2017_12_14_2021,
"[2.6, 2.6]",1,0,11,11,0,,,,,0,0,0,0,down,1.20882218497,EU,f,18,59.995689757,Set,2017_12_14_2021,
"[2.6, 2.6]",1,0,11,11,0,,,,,1,0,1,0,down,0.508799921678,EU,f,18,59.995689757,Set,2017_12_14_2021,
"[3.0, 3.0]",5,0,12,12,28,,,,,0,0,0,0,down,0.592137662941,EU,f,18,59.995689757,Set,2017_12_14_2021,
"[3.0, 3.0]",5,0,12,12,28,,,,,1,0,1,0,down,0.59214871563,EU,f,18,59.995689757,Set,2017_12_14_2021,
"[2.6, 2.6]",3,0,13,13,2,,,,,0,0,0,0,down,0.500247501506,EU,f,18,59.995689757,Set,2017_12_14_2021,
"[2.6, 2.6]",3,0,13,13,2,,,,,1,0,1,0,down,0.742118044407,EU,f,18,59.995689757,Set,2017_12_14_2021,
"[3.0, 3.0]",3,0,14,14,26,,,,,0,0,0,0,down,0.466920457678,EU,f,18,59.995689757,Set,2017_12_14_2021,
"[3.0, 3.0]",3,0,14,14,26,,,,,1,0,1,0,down,0.575437430278,EU,f,18,59.995689757,Set,2017_12_14_2021,
"[2.8, 2.8]",1,0,15,15,12,,,,,0,0,0,0,down,0.700244896216,EU,f,18,59.995689757,Set,2017_12_14_2021,
"[2.8, 2.8]",1,0,15,15,12,,,,,1,0,1,0,down,0.492185347437,EU,f,18,59.995689757,Set,2017_12_14_2021,
"[2.8, 2.8]",4,0,16,16,15,,,,,0,0,0,0,left,0.642168492064,EU,f,18,59.995689757,Set,2017_12_14_2021,
"[2.8, 2.8]",4,0,16,16,15,,,,,1,0,1,0,down,0.642133755013,EU,f,18,59.995689757,Set,2017_12_14_2021,
"[2.8, 2.8]",4,0,16,16,15,,,,,2,0,2,0,down,0.492160478869,EU,f,18,59.995689757,Set,2017_12_14_2021,
"[3.0, 3.0]",4,0,17,17,27,,,,,0,0,0,0,down,0.458804224341,EU,f,18,59.995689757,Set,2017_12_14_2021,
"[3.0, 3.0]",4,0,17,17,27,,,,,1,0,1,0,down,1.92548191739,EU,f,18,59.995689757,Set,2017_12_14_2021,
"[2.9, 2.9]",1,0,18,18,18,,,,,0,0,0,0,down,0.450288909647,EU,f,18,59.995689757,Set,2017_12_14_2021,
"[2.9, 2.9]",1,0,18,18,18,,,,,1,0,1,0,left,0.500259738415,EU,f,18,59.995689757,Set,2017_12_14_2021,
"[2.9, 2.9]",1,0,18,18,18,,,,,2,0,2,0,down,0.525603181275,EU,f,18,59.995689757,Set,2017_12_14_2021,
"[2.9, 2.9]",1,0,18,18,18,,,,,3,0,3,0,down,2.16697587905,EU,f,18,59.995689757,Set,2017_12_14_2021,
"[2.9, 2.9]",1,0,18,18,18,,,,,4,0,4,0,left,0.916890023276,EU,f,18,59.995689757,Set,2017_12_14_2021,
"[2.9, 2.9]",1,0,18,18,18,,,,,5,0,5,0,left,0.458730013372,EU,f,18,59.995689757,Set,2017_12_14_2021,
"[2.9, 2.9]",1,0,18,18,18,,,,,6,0,6,0,down,0.608878158993,EU,f,18,59.995689757,Set,2017_12_14_2021,
"[2.9, 2.9]",1,0,18,18,18,,,,,7,0,7,0,down,3.3587840137,EU,f,18,59.995689757,Set,2017_12_14_2021,
"[2.7, 2.7]",4,0,19,19,9,,,,,0,0,0,0,down,0.425579023242,EU,f,18,59.995689757,Set,2017_12_14_2021,
"[2.7, 2.7]",4,0,19,19,9,,,,,1,0,1,0,down,0.40877813207,EU,f,18,59.995689757,Set,2017_12_14_2021,
"[2.8, 2.8]",6,0,20,20,17,,,,,0,0,0,0,down,0.516912207633,EU,f,18,59.995689757,Set,2017_12_14_2021,
"[2.8, 2.8]",6,0,20,20,17,,,,,1,0,1,0,down,0.442152149873,EU,f,18,59.995689757,Set,2017_12_14_2021,
"[2.8, 2.8]",5,0,21,21,16,,,,,0,0,0,0,down,0.458810145428,EU,f,18,59.995689757,Set,2017_12_14_2021,
"[2.8, 2.8]",5,0,21,21,16,,,,,1,0,1,0,down,0.508804263809,EU,f,18,59.995689757,Set,2017_12_14_2021,
"[2.7, 2.7]",1,0,22,22,6,,,,,0,0,0,0,down,0.475566036315,EU,f,18,59.995689757,Set,2017_12_14_2021,
"[2.7, 2.7]",1,0,22,22,6,,,,,1,0,1,0,down,1.3754546409,EU,f,18,59.995689757,Set,2017_12_14_2021,
"[2.6, 2.6]",6,0,23,23,5,,,,,0,0,0,0,down,0.408783263687,EU,f,18,59.995689757,Set,2017_12_14_2021,
"[2.6, 2.6]",6,0,23,23,5,,,,,1,0,1,0,left,1.59213608399,EU,f,18,59.995689757,Set,2017_12_14_2021,
"[2.6, 2.6]",6,0,23,23,5,,,,,2,0,2,0,down,0.675484088468,EU,f,18,59.995689757,Set,2017_12_14_2021,
"[2.6, 2.6]",6,0,23,23,5,,,,,3,0,3,0,down,0.40880892174,EU,f,18,59.995689757,Set,2017_12_14_2021,
"[2.9, 2.9]",2,0,24,24,19,,,,,0,0,0,0,left,0.525495417474,EU,f,18,59.995689757,Set,2017_12_14_2021,
"[2.9, 2.9]",2,0,24,24,19,,,,,1,0,1,0,left,0.492146663004,EU,f,18,59.995689757,Set,2017_12_14_2021,
"[2.9, 2.9]",2,0,24,24,19,,,,,2,0,2,0,left,0.358603223125,EU,f,18,59.995689757,Set,2017_12_14_2021,
"[2.9, 2.9]",2,0,24,24,19,,,,,3,0,3,0,down,0.508786895298,EU,f,18,59.995689757,Set,2017_12_14_2021,
"[2.9, 2.9]",2,0,24,24,19,,,,,4,0,4,0,left,0.408860632568,EU,f,18,59.995689757,Set,2017_12_14_2021,
"[2.9, 2.9]",2,0,24,24,19,,,,,5,0,5,0,down,0.775477851581,EU,f,18,59.995689757,Set,2017_12_14_2021,
"[2.9, 2.9]",2,0,24,24,19,,,,,6,0,6,0,down,1.07546111463,EU,f,18,59.995689757,Set,2017_12_14_2021,
"[2.8, 2.8]",3,0,25,25,14,,,,,0,0,0,0,left,0.583589190152,EU,f,18,59.995689757,Set,2017_12_14_2021,
"[2.8, 2.8]",3,0,25,25,14,,,,,1,0,1,0,left,0.39214776826,EU,f,18,59.995689757,Set,2017_12_14_2021,
"[2.8, 2.8]",3,0,25,25,14,,,,,2,0,2,0,left,0.775453772483,EU,f,18,59.995689757,Set,2017_12_14_2021,
"[2.8, 2.8]",3,0,25,25,14,,,,,3,0,3,0,down,0.925448759299,EU,f,18,59.995689757,Set,2017_12_14_2021,
"[2.8, 2.8]",3,0,25,25,14,,,,,4,0,4,0,down,1.32544433822,EU,f,18,59.995689757,Set,2017_12_14_2021,
"[2.9, 2.9]",5,0,26,26,22,,,,,0,0,0,0,down,0.483578847983,EU,f,18,59.995689757,Set,2017_12_14_2021,
"[2.9, 2.9]",5,0,26,26,22,,,,,1,0,1,0,down,0.466907826034,EU,f,18,59.995689757,Set,2017_12_14_2021,
"[2.6, 2.6]",2,0,27,27,1,,,,,0,0,0,0,down,0.492127320773,EU,f,18,59.995689757,Set,2017_12_14_2021,
"[2.6, 2.6]",2,0,27,27,1,,,,,1,0,1,0,left,0.475459061985,EU,f,18,59.995689757,Set,2017_12_14_2021,
"[2.6, 2.6]",2,0,27,27,1,,,,,2,0,2,0,left,1.59209068898,EU,f,18,59.995689757,Set,2017_12_14_2021,
"[2.6, 2.6]",2,0,27,27,1,,,,,3,0,3,0,left,0.475472088394,EU,f,18,59.995689757,Set,2017_12_14_2021,
"[2.6, 2.6]",2,0,27,27,1,,,,,4,0,4,0,down,0.47545866725,EU,f,18,59.995689757,Set,2017_12_14_2021,
"[2.6, 2.6]",2,0,27,27,1,,,,,5,0,5,0,down,0.35879861904,EU,f,18,59.995689757,Set,2017_12_14_2021,
"[2.7, 2.7]",5,0,28,28,10,,,,,0,0,0,0,down,0.533572176893,EU,f,18,59.995689757,Set,2017_12_14_2021,
"[2.7, 2.7]",5,0,28,28,10,,,,,1,0,1,0,down,3.10878776372,EU,f,18,59.995689757,Set,2017_12_14_2021,
"[3.0, 3.0]",6,0,29,29,29,,,,,0,0,0,0,left,0.658804776976,EU,f,18,59.995689757,Set,2017_12_14_2021,
"[3.0, 3.0]",6,0,29,29,29,,,,,1,0,1,0,left,1.44211701809,EU,f,18,59.995689757,Set,2017_12_14_2021,
"[3.0, 3.0]",6,0,29,29,29,,,,,2,0,2,0,left,0.475469719953,EU,f,18,59.995689757,Set,2017_12_14_2021,
"[3.0, 3.0]",6,0,29,29,29,,,,,3,0,3,0,down,0.583594716503,EU,f,18,59.995689757,Set,2017_12_14_2021,
"[3.0, 3.0]",6,0,29,29,29,,,,,4,0,4,0,down,1.84209286002,EU,f,18,59.995689757,Set,2017_12_14_2021,
