size,n,trials_2.thisRepN,trials_2.thisTrialN,trials_2.thisN,trials_2.thisIndex,trials.thisRepN,trials.thisTrialN,trials.thisN,trials.thisIndex,trials_3.thisRepN,trials_3.thisTrialN,trials_3.thisN,trials_3.thisIndex,answer.keys,answer.rt,participant,gender,age,frameRate,expName,date,
"[2.7, 2.7]",5,0,0,0,10,,,,,0,0,0,0,right,17.6920386623,GAS,f,28,60.0039318609,Set,2017_12_14_2004,
"[2.7, 2.7]",5,0,0,0,10,,,,,1,0,1,0,right,4.03355243991,GAS,f,28,60.0039318609,Set,2017_12_14_2004,
"[2.7, 2.7]",5,0,0,0,10,,,,,2,0,2,0,right,3.77552561501,GAS,f,28,60.0039318609,Set,2017_12_14_2004,
"[2.7, 2.7]",5,0,0,0,10,,,,,3,0,3,0,right,4.40880734278,GAS,f,28,60.0039318609,Set,2017_12_14_2004,
"[2.7, 2.7]",5,0,0,0,10,,,,,4,0,4,0,right,2.32544986457,GAS,f,28,60.0039318609,Set,2017_12_14_2004,
"[2.7, 2.7]",5,0,0,0,10,,,,,5,0,5,0,right,3.95878053999,GAS,f,28,60.0039318609,Set,2017_12_14_2004,
"[2.7, 2.7]",5,0,0,0,10,,,,,6,0,6,0,right,3.92544520665,GAS,f,28,60.0039318609,Set,2017_12_14_2004,
"[2.7, 2.7]",5,0,0,0,10,,,,,7,0,7,0,right,5.84211220226,GAS,f,28,60.0039318609,Set,2017_12_14_2004,
"[2.7, 2.7]",5,0,0,0,10,,,,,8,0,8,0,down,2.2754490356,GAS,f,28,60.0039318609,Set,2017_12_14_2004,
"[2.7, 2.7]",5,0,0,0,10,,,,,9,0,9,0,down,1.35878282948,GAS,f,28,60.0039318609,Set,2017_12_14_2004,
"[2.6, 2.6]",1,0,1,1,0,,,,,0,0,0,0,right,3.7587673557,GAS,f,28,60.0039318609,Set,2017_12_14_2004,
"[2.6, 2.6]",1,0,1,1,0,,,,,1,0,1,0,right,3.35875164506,GAS,f,28,60.0039318609,Set,2017_12_14_2004,
"[2.6, 2.6]",1,0,1,1,0,,,,,2,0,2,0,right,2.09216174204,GAS,f,28,60.0039318609,Set,2017_12_14_2004,
"[2.6, 2.6]",1,0,1,1,0,,,,,3,0,3,0,right,1.14214243929,GAS,f,28,60.0039318609,Set,2017_12_14_2004,
"[2.6, 2.6]",1,0,1,1,0,,,,,4,0,4,0,right,1.10877986894,GAS,f,28,60.0039318609,Set,2017_12_14_2004,
"[2.6, 2.6]",1,0,1,1,0,,,,,5,0,5,0,right,1.09212266286,GAS,f,28,60.0039318609,Set,2017_12_14_2004,
"[2.6, 2.6]",1,0,1,1,0,,,,,6,0,6,0,down,0.975455114603,GAS,f,28,60.0039318609,Set,2017_12_14_2004,
"[2.6, 2.6]",1,0,1,1,0,,,,,7,0,7,0,down,0.742180807938,GAS,f,28,60.0039318609,Set,2017_12_14_2004,
"[3.0, 3.0]",6,0,2,2,29,,,,,0,0,0,0,down,2.9753907721,GAS,f,28,60.0039318609,Set,2017_12_14_2004,
"[3.0, 3.0]",6,0,2,2,29,,,,,1,0,1,0,down,1.34215404463,GAS,f,28,60.0039318609,Set,2017_12_14_2004,
"[3.0, 3.0]",4,0,3,3,27,,,,,0,0,0,0,right,2.13356396632,GAS,f,28,60.0039318609,Set,2017_12_14_2004,
"[3.0, 3.0]",4,0,3,3,27,,,,,1,0,1,0,right,1.34212246549,GAS,f,28,60.0039318609,Set,2017_12_14_2004,
"[3.0, 3.0]",4,0,3,3,27,,,,,2,0,2,0,down,1.14212270232,GAS,f,28,60.0039318609,Set,2017_12_14_2004,
"[3.0, 3.0]",4,0,3,3,27,,,,,3,0,3,0,down,3.77546443045,GAS,f,28,60.0039318609,Set,2017_12_14_2004,
"[2.7, 2.7]",3,0,4,4,8,,,,,0,0,0,0,right,1.28356408473,GAS,f,28,60.0039318609,Set,2017_12_14_2004,
"[2.7, 2.7]",3,0,4,4,8,,,,,1,0,1,0,down,0.942165176253,GAS,f,28,60.0039318609,Set,2017_12_14_2004,
"[2.7, 2.7]",3,0,4,4,8,,,,,2,0,2,0,down,0.408765895161,GAS,f,28,60.0039318609,Set,2017_12_14_2004,
"[2.6, 2.6]",6,0,5,5,5,,,,,0,0,0,0,down,1.1921168207,GAS,f,28,60.0039318609,Set,2017_12_14_2004,
"[2.6, 2.6]",6,0,5,5,5,,,,,1,0,1,0,down,0.908792342685,GAS,f,28,60.0039318609,Set,2017_12_14_2004,
"[2.6, 2.6]",5,0,6,6,4,,,,,0,0,0,0,down,1.50025342258,GAS,f,28,60.0039318609,Set,2017_12_14_2004,
"[2.6, 2.6]",5,0,6,6,4,,,,,1,0,1,0,down,1.62545641724,GAS,f,28,60.0039318609,Set,2017_12_14_2004,
"[2.7, 2.7]",1,0,7,7,6,,,,,0,0,0,0,down,1.21690526021,GAS,f,28,60.0039318609,Set,2017_12_14_2004,
"[2.7, 2.7]",1,0,7,7,6,,,,,1,0,1,0,down,0.475438140813,GAS,f,28,60.0039318609,Set,2017_12_14_2004,
"[2.8, 2.8]",6,0,8,8,17,,,,,0,0,0,0,down,1.34216549205,GAS,f,28,60.0039318609,Set,2017_12_14_2004,
"[2.8, 2.8]",6,0,8,8,17,,,,,1,0,1,0,down,0.975431035506,GAS,f,28,60.0039318609,Set,2017_12_14_2004,
"[3.0, 3.0]",1,0,9,9,24,,,,,0,0,0,0,down,1.35879980326,GAS,f,28,60.0039318609,Set,2017_12_14_2004,
"[3.0, 3.0]",1,0,9,9,24,,,,,1,0,1,0,down,0.975431824976,GAS,f,28,60.0039318609,Set,2017_12_14_2004,
"[2.8, 2.8]",4,0,10,10,15,,,,,0,0,0,0,down,1.50019539593,GAS,f,28,60.0039318609,Set,2017_12_14_2004,
"[2.8, 2.8]",4,0,10,10,15,,,,,1,0,1,0,down,0.475501693829,GAS,f,28,60.0039318609,Set,2017_12_14_2004,
"[2.7, 2.7]",4,0,11,11,9,,,,,0,0,0,0,down,0.592108057492,GAS,f,28,60.0039318609,Set,2017_12_14_2004,
"[2.7, 2.7]",4,0,11,11,9,,,,,1,0,1,0,down,0.475446430341,GAS,f,28,60.0039318609,Set,2017_12_14_2004,
"[3.0, 3.0]",3,0,12,12,26,,,,,0,0,0,0,down,0.400250185732,GAS,f,28,60.0039318609,Set,2017_12_14_2004,
"[3.0, 3.0]",3,0,12,12,26,,,,,1,0,1,0,down,0.450076145193,GAS,f,28,60.0039318609,Set,2017_12_14_2004,
"[2.6, 2.6]",4,0,13,13,3,,,,,0,0,0,0,down,0.47546103569,GAS,f,28,60.0039318609,Set,2017_12_14_2004,
"[2.6, 2.6]",4,0,13,13,3,,,,,1,0,1,0,down,0.292140189267,GAS,f,28,60.0039318609,Set,2017_12_14_2004,
"[2.6, 2.6]",2,0,14,14,1,,,,,0,0,0,0,down,0.792146505089,GAS,f,28,60.0039318609,Set,2017_12_14_2004,
"[2.6, 2.6]",2,0,14,14,1,,,,,1,0,1,0,down,0.458824750793,GAS,f,28,60.0039318609,Set,2017_12_14_2004,
"[2.8, 2.8]",3,0,15,15,14,,,,,0,0,0,0,down,2.19212234706,GAS,f,28,60.0039318609,Set,2017_12_14_2004,
"[2.8, 2.8]",3,0,15,15,14,,,,,1,0,1,0,down,0.742132649757,GAS,f,28,60.0039318609,Set,2017_12_14_2004,
"[2.6, 2.6]",3,0,16,16,2,,,,,0,0,0,0,left,7.10873368444,GAS,f,28,60.0039318609,Set,2017_12_14_2004,
"[2.6, 2.6]",3,0,16,16,2,,,,,1,0,1,0,right,1.74208054418,GAS,f,28,60.0039318609,Set,2017_12_14_2004,
"[2.6, 2.6]",3,0,16,16,2,,,,,2,0,2,0,down,2.36687498372,GAS,f,28,60.0039318609,Set,2017_12_14_2004,
"[2.6, 2.6]",3,0,16,16,2,,,,,3,0,3,0,down,0.825458548818,GAS,f,28,60.0039318609,Set,2017_12_14_2004,
"[2.8, 2.8]",1,0,17,17,12,,,,,0,0,0,0,right,2.22547189101,GAS,f,28,60.0039318609,Set,2017_12_14_2004,
"[2.8, 2.8]",1,0,17,17,12,,,,,1,0,1,0,right,1.18357190058,GAS,f,28,60.0039318609,Set,2017_12_14_2004,
"[2.8, 2.8]",1,0,17,17,12,,,,,2,0,2,0,down,1.34210272851,GAS,f,28,60.0039318609,Set,2017_12_14_2004,
"[2.8, 2.8]",1,0,17,17,12,,,,,3,0,3,0,right,1.84211772861,GAS,f,28,60.0039318609,Set,2017_12_14_2004,
"[2.8, 2.8]",1,0,17,17,12,,,,,4,0,4,0,down,0.692156689372,GAS,f,28,60.0039318609,Set,2017_12_14_2004,
"[2.8, 2.8]",1,0,17,17,12,,,,,5,0,5,0,down,0.692136162936,GAS,f,28,60.0039318609,Set,2017_12_14_2004,
"[2.7, 2.7]",6,0,18,18,11,,,,,0,0,0,0,right,4.5753892721,GAS,f,28,60.0039318609,Set,2017_12_14_2004,
"[2.7, 2.7]",6,0,18,18,11,,,,,1,0,1,0,down,0.450072987282,GAS,f,28,60.0039318609,Set,2017_12_14_2004,
"[2.7, 2.7]",6,0,18,18,11,,,,,2,0,2,0,down,0.350272251657,GAS,f,28,60.0039318609,Set,2017_12_14_2004,
"[3.0, 3.0]",5,0,19,19,28,,,,,0,0,0,0,down,1.35879388217,GAS,f,28,60.0039318609,Set,2017_12_14_2004,
"[3.0, 3.0]",5,0,19,19,28,,,,,1,0,1,0,down,0.408792737435,GAS,f,28,60.0039318609,Set,2017_12_14_2004,
"[2.9, 2.9]",2,0,20,20,19,,,,,0,0,0,0,right,0.925427048642,GAS,f,28,60.0039318609,Set,2017_12_14_2004,
"[2.9, 2.9]",2,0,20,20,19,,,,,1,0,1,0,down,0.692095504783,GAS,f,28,60.0039318609,Set,2017_12_14_2004,
"[2.9, 2.9]",2,0,20,20,19,,,,,2,0,2,0,down,0.692138926112,GAS,f,28,60.0039318609,Set,2017_12_14_2004,
"[2.9, 2.9]",6,0,21,21,23,,,,,0,0,0,0,down,0.542112754891,GAS,f,28,60.0039318609,Set,2017_12_14_2004,
"[2.9, 2.9]",6,0,21,21,23,,,,,1,0,1,0,down,0.358844014045,GAS,f,28,60.0039318609,Set,2017_12_14_2004,
"[2.9, 2.9]",3,0,22,22,20,,,,,0,0,0,0,right,1.17546395675,GAS,f,28,60.0039318609,Set,2017_12_14_2004,
"[2.9, 2.9]",3,0,22,22,20,,,,,1,0,1,0,down,0.958795540078,GAS,f,28,60.0039318609,Set,2017_12_14_2004,
"[2.9, 2.9]",3,0,22,22,20,,,,,2,0,2,0,down,0.350258830513,GAS,f,28,60.0039318609,Set,2017_12_14_2004,
"[2.9, 2.9]",1,0,23,23,18,,,,,0,0,0,0,down,1.99212416286,GAS,f,28,60.0039318609,Set,2017_12_14_2004,
"[2.9, 2.9]",1,0,23,23,18,,,,,1,0,1,0,down,0.225473864717,GAS,f,28,60.0039318609,Set,2017_12_14_2004,
"[2.7, 2.7]",2,0,24,24,7,,,,,0,0,0,0,right,1.05024951466,GAS,f,28,60.0039318609,Set,2017_12_14_2004,
"[2.7, 2.7]",2,0,24,24,7,,,,,1,0,1,0,down,0.375452667213,GAS,f,28,60.0039318609,Set,2017_12_14_2004,
"[2.7, 2.7]",2,0,24,24,7,,,,,2,0,2,0,down,0.308803316439,GAS,f,28,60.0039318609,Set,2017_12_14_2004,
"[2.9, 2.9]",4,0,25,25,21,,,,,0,0,0,0,down,0.642149939333,GAS,f,28,60.0039318609,Set,2017_12_14_2004,
"[2.9, 2.9]",4,0,25,25,21,,,,,1,0,1,0,down,0.375473588385,GAS,f,28,60.0039318609,Set,2017_12_14_2004,
"[2.8, 2.8]",5,0,26,26,16,,,,,0,0,0,0,down,0.558827198169,GAS,f,28,60.0039318609,Set,2017_12_14_2004,
"[2.8, 2.8]",5,0,26,26,16,,,,,1,0,1,0,down,0.275506667545,GAS,f,28,60.0039318609,Set,2017_12_14_2004,
"[3.0, 3.0]",2,0,27,27,25,,,,,0,0,0,0,down,1.20877757944,GAS,f,28,60.0039318609,Set,2017_12_14_2004,
"[3.0, 3.0]",2,0,27,27,25,,,,,1,0,1,0,down,1.00881176385,GAS,f,28,60.0039318609,Set,2017_12_14_2004,
"[2.9, 2.9]",5,0,28,28,22,,,,,0,0,0,0,down,0.583591953313,GAS,f,28,60.0039318609,Set,2017_12_14_2004,
"[2.9, 2.9]",5,0,28,28,22,,,,,1,0,1,0,down,0.342124044444,GAS,f,28,60.0039318609,Set,2017_12_14_2004,
"[2.8, 2.8]",2,0,29,29,13,,,,,0,0,0,0,down,0.942107939074,GAS,f,28,60.0039318609,Set,2017_12_14_2004,
"[2.8, 2.8]",2,0,29,29,13,,,,,1,0,1,0,down,0.408782868952,GAS,f,28,60.0039318609,Set,2017_12_14_2004,
