size,n,trials_2.thisRepN,trials_2.thisTrialN,trials_2.thisN,trials_2.thisIndex,trials.thisRepN,trials.thisTrialN,trials.thisN,trials.thisIndex,trials_3.thisRepN,trials_3.thisTrialN,trials_3.thisN,trials_3.thisIndex,answer.keys,answer.rt,participant,gender,age,frameRate,expName,date,
"[2.7, 2.7]",1,0,0,0,6,,,,,0,0,0,0,down,3.72544504874,GMV,f,19,60.0016579583,Set,2017_12_15_2126,
"[2.7, 2.7]",1,0,0,0,6,,,,,1,0,1,0,down,4.1587878032,GMV,f,19,60.0016579583,Set,2017_12_15_2126,
"[2.8, 2.8]",2,0,1,1,13,,,,,0,0,0,0,right,1.29209795216,GMV,f,19,60.0016579583,Set,2017_12_15_2126,
"[2.8, 2.8]",2,0,1,1,13,,,,,1,0,1,0,right,2.12544654874,GMV,f,19,60.0016579583,Set,2017_12_15_2126,
"[2.8, 2.8]",2,0,1,1,13,,,,,2,0,2,0,left,1.54211986018,GMV,f,19,60.0016579583,Set,2017_12_15_2126,
"[2.8, 2.8]",2,0,1,1,13,,,,,3,0,3,0,right,1.05892706721,GMV,f,19,60.0016579583,Set,2017_12_15_2126,
"[2.8, 2.8]",2,0,1,1,13,,,,,4,0,4,0,right,1.35882348762,GMV,f,19,60.0016579583,Set,2017_12_15_2126,
"[2.8, 2.8]",2,0,1,1,13,,,,,5,0,5,0,down,1.09212779446,GMV,f,19,60.0016579583,Set,2017_12_15_2126,
"[2.8, 2.8]",2,0,1,1,13,,,,,6,0,6,0,down,1.70876692148,GMV,f,19,60.0016579583,Set,2017_12_15_2126,
"[2.8, 2.8]",2,0,1,1,13,,,,,7,0,7,0,right,1.25865761819,GMV,f,19,60.0016579583,Set,2017_12_15_2126,
"[2.8, 2.8]",2,0,1,1,13,,,,,8,0,8,0,right,0.842137465574,GMV,f,19,60.0016579583,Set,2017_12_15_2126,
"[2.8, 2.8]",2,0,1,1,13,,,,,9,0,9,0,right,0.758823013952,GMV,f,19,60.0016579583,Set,2017_12_15_2126,
"[2.8, 2.8]",2,0,1,1,13,,,,,10,0,10,0,right,1.87544714086,GMV,f,19,60.0016579583,Set,2017_12_15_2126,
"[2.8, 2.8]",2,0,1,1,13,,,,,11,0,11,0,down,1.39212013653,GMV,f,19,60.0016579583,Set,2017_12_15_2126,
"[2.8, 2.8]",2,0,1,1,13,,,,,12,0,12,0,right,1.52542594337,GMV,f,19,60.0016579583,Set,2017_12_15_2126,
"[2.8, 2.8]",2,0,1,1,13,,,,,13,0,13,0,right,1.62543036442,GMV,f,19,60.0016579583,Set,2017_12_15_2126,
"[2.8, 2.8]",2,0,1,1,13,,,,,14,0,14,0,down,1.87540135111,GMV,f,19,60.0016579583,Set,2017_12_15_2126,
"[2.8, 2.8]",2,0,1,1,13,,,,,15,0,15,0,down,1.8754495093,GMV,f,19,60.0016579583,Set,2017_12_15_2126,
"[2.8, 2.8]",2,0,1,1,13,,,,,16,0,16,0,right,1.35876782937,GMV,f,19,60.0016579583,Set,2017_12_15_2126,
"[2.8, 2.8]",2,0,1,1,13,,,,,17,0,17,0,right,1.55900996242,GMV,f,19,60.0016579583,Set,2017_12_15_2126,
"[2.8, 2.8]",2,0,1,1,13,,,,,18,0,18,0,down,0.783640664158,GMV,f,19,60.0016579583,Set,2017_12_15_2126,
"[2.8, 2.8]",2,0,1,1,13,,,,,19,0,19,0,down,1.70879139533,GMV,f,19,60.0016579583,Set,2017_12_15_2126,
"[2.6, 2.6]",4,0,2,2,3,,,,,0,0,0,0,down,1.07545756196,GMV,f,19,60.0016579583,Set,2017_12_15_2126,
"[2.6, 2.6]",4,0,2,2,3,,,,,1,0,1,0,down,2.74216817628,GMV,f,19,60.0016579583,Set,2017_12_15_2126,
"[2.6, 2.6]",6,0,3,3,5,,,,,0,0,0,0,right,0.633578571666,GMV,f,19,60.0016579583,Set,2017_12_15_2126,
"[2.6, 2.6]",6,0,3,3,5,,,,,1,0,1,0,right,0.992145478755,GMV,f,19,60.0016579583,Set,2017_12_15_2126,
"[2.6, 2.6]",6,0,3,3,5,,,,,2,0,2,0,right,1.12544970668,GMV,f,19,60.0016579583,Set,2017_12_15_2126,
"[2.6, 2.6]",6,0,3,3,5,,,,,3,0,3,0,down,2.00877505314,GMV,f,19,60.0016579583,Set,2017_12_15_2126,
"[2.6, 2.6]",6,0,3,3,5,,,,,4,0,4,0,right,1.29191045102,GMV,f,19,60.0016579583,Set,2017_12_15_2126,
"[2.6, 2.6]",6,0,3,3,5,,,,,5,0,5,0,down,1.72545846988,GMV,f,19,60.0016579583,Set,2017_12_15_2126,
"[2.6, 2.6]",6,0,3,3,5,,,,,6,0,6,0,down,1.45876198725,GMV,f,19,60.0016579583,Set,2017_12_15_2126,
"[3.0, 3.0]",4,0,4,4,27,,,,,0,0,0,0,left,1.47543774609,GMV,f,19,60.0016579583,Set,2017_12_15_2126,
"[3.0, 3.0]",4,0,4,4,27,,,,,1,0,1,0,left,1.54212183392,GMV,f,19,60.0016579583,Set,2017_12_15_2126,
"[3.0, 3.0]",4,0,4,4,27,,,,,2,0,2,0,left,1.74212278129,GMV,f,19,60.0016579583,Set,2017_12_15_2126,
"[3.0, 3.0]",4,0,4,4,27,,,,,3,0,3,0,right,1.1921006364,GMV,f,19,60.0016579583,Set,2017_12_15_2126,
"[3.0, 3.0]",4,0,4,4,27,,,,,4,0,4,0,down,1.19212787342,GMV,f,19,60.0016579583,Set,2017_12_15_2126,
"[3.0, 3.0]",4,0,4,4,27,,,,,5,0,5,0,down,0.792183610611,GMV,f,19,60.0016579583,Set,2017_12_15_2126,
"[2.7, 2.7]",6,0,5,5,11,,,,,0,0,0,0,down,1.32548381214,GMV,f,19,60.0016579583,Set,2017_12_15_2126,
"[2.7, 2.7]",6,0,5,5,11,,,,,1,0,1,0,down,2.55880390856,GMV,f,19,60.0016579583,Set,2017_12_15_2126,
"[2.9, 2.9]",6,0,6,6,23,,,,,0,0,0,0,down,2.25005427664,GMV,f,19,60.0016579583,Set,2017_12_15_2126,
"[2.9, 2.9]",6,0,6,6,23,,,,,1,0,1,0,right,1.34211536017,GMV,f,19,60.0016579583,Set,2017_12_15_2126,
"[2.9, 2.9]",6,0,6,6,23,,,,,2,0,2,0,down,1.1754493514,GMV,f,19,60.0016579583,Set,2017_12_15_2126,
"[2.9, 2.9]",6,0,6,6,23,,,,,3,0,3,0,right,1.35877888207,GMV,f,19,60.0016579583,Set,2017_12_15_2126,
"[2.9, 2.9]",6,0,6,6,23,,,,,4,0,4,0,right,1.60877394784,GMV,f,19,60.0016579583,Set,2017_12_15_2126,
"[2.9, 2.9]",6,0,6,6,23,,,,,5,0,5,0,down,1.30877844786,GMV,f,19,60.0016579583,Set,2017_12_15_2126,
"[2.9, 2.9]",6,0,6,6,23,,,,,6,0,6,0,down,2.12544023292,GMV,f,19,60.0016579583,Set,2017_12_15_2126,
"[2.9, 2.9]",6,0,6,6,23,,,,,7,0,7,0,left,0.992141136638,GMV,f,19,60.0016579583,Set,2017_12_15_2126,
"[2.9, 2.9]",6,0,6,6,23,,,,,8,0,8,0,down,1.82549604904,GMV,f,19,60.0016579583,Set,2017_12_15_2126,
"[2.9, 2.9]",6,0,6,6,23,,,,,9,0,9,0,left,1.25876222408,GMV,f,19,60.0016579583,Set,2017_12_15_2126,
"[2.9, 2.9]",6,0,6,6,23,,,,,10,0,10,0,down,0.708784684772,GMV,f,19,60.0016579583,Set,2017_12_15_2126,
"[2.9, 2.9]",6,0,6,6,23,,,,,11,0,11,0,down,1.30879818482,GMV,f,19,60.0016579583,Set,2017_12_15_2126,
"[2.9, 2.9]",3,0,7,7,20,,,,,0,0,0,0,down,1.42548389107,GMV,f,19,60.0016579583,Set,2017_12_15_2126,
"[2.9, 2.9]",3,0,7,7,20,,,,,1,0,1,0,down,1.49212811026,GMV,f,19,60.0016579583,Set,2017_12_15_2126,
"[2.7, 2.7]",3,0,8,8,8,,,,,0,0,0,0,right,0.783623295603,GMV,f,19,60.0016579583,Set,2017_12_15_2126,
"[2.7, 2.7]",3,0,8,8,8,,,,,1,0,1,0,down,0.908800237492,GMV,f,19,60.0016579583,Set,2017_12_15_2126,
"[2.7, 2.7]",3,0,8,8,8,,,,,2,0,2,0,down,0.575456377759,GMV,f,19,60.0016579583,Set,2017_12_15_2126,
"[2.6, 2.6]",1,0,9,9,0,,,,,0,0,0,0,left,1.40027465957,GMV,f,19,60.0016579583,Set,2017_12_15_2126,
"[2.6, 2.6]",1,0,9,9,0,,,,,1,0,1,0,right,0.758785513695,GMV,f,19,60.0016579583,Set,2017_12_15_2126,
"[2.6, 2.6]",1,0,9,9,0,,,,,2,0,2,0,down,0.958784882125,GMV,f,19,60.0016579583,Set,2017_12_15_2126,
"[2.6, 2.6]",1,0,9,9,0,,,,,3,0,3,0,right,0.708798500622,GMV,f,19,60.0016579583,Set,2017_12_15_2126,
"[2.6, 2.6]",1,0,9,9,0,,,,,4,0,4,0,right,0.625431548659,GMV,f,19,60.0016579583,Set,2017_12_15_2126,
"[2.6, 2.6]",1,0,9,9,0,,,,,5,0,5,0,right,0.892121320736,GMV,f,19,60.0016579583,Set,2017_12_15_2126,
"[2.6, 2.6]",1,0,9,9,0,,,,,6,0,6,0,right,0.45878606636,GMV,f,19,60.0016579583,Set,2017_12_15_2126,
"[2.6, 2.6]",1,0,9,9,0,,,,,7,0,7,0,right,0.558777461003,GMV,f,19,60.0016579583,Set,2017_12_15_2126,
"[2.6, 2.6]",1,0,9,9,0,,,,,8,0,8,0,right,0.508877685294,GMV,f,19,60.0016579583,Set,2017_12_15_2126,
"[2.6, 2.6]",1,0,9,9,0,,,,,9,0,9,0,right,0.592121083871,GMV,f,19,60.0016579583,Set,2017_12_15_2126,
"[2.6, 2.6]",1,0,9,9,0,,,,,10,0,10,0,right,0.492087057355,GMV,f,19,60.0016579583,Set,2017_12_15_2126,
"[2.6, 2.6]",1,0,9,9,0,,,,,11,0,11,0,right,1.30879226374,GMV,f,19,60.0016579583,Set,2017_12_15_2126,
"[2.6, 2.6]",1,0,9,9,0,,,,,12,0,12,0,right,1.17543750923,GMV,f,19,60.0016579583,Set,2017_12_15_2126,
"[2.6, 2.6]",1,0,9,9,0,,,,,13,0,13,0,right,1.42546336463,GMV,f,19,60.0016579583,Set,2017_12_15_2126,
"[2.6, 2.6]",1,0,9,9,0,,,,,14,0,14,0,right,1.30883963243,GMV,f,19,60.0016579583,Set,2017_12_15_2126,
"[2.6, 2.6]",1,0,9,9,0,,,,,15,0,15,0,down,1.35021896186,GMV,f,19,60.0016579583,Set,2017_12_15_2126,
"[2.6, 2.6]",1,0,9,9,0,,,,,16,0,16,0,right,1.19212392601,GMV,f,19,60.0016579583,Set,2017_12_15_2126,
"[2.6, 2.6]",1,0,9,9,0,,,,,17,0,17,0,right,1.88340587323,GMV,f,19,60.0016579583,Set,2017_12_15_2126,
"[2.6, 2.6]",1,0,9,9,0,,,,,18,0,18,0,right,0.983572532132,GMV,f,19,60.0016579583,Set,2017_12_15_2126,
"[2.6, 2.6]",1,0,9,9,0,,,,,19,0,19,0,down,1.22544741718,GMV,f,19,60.0016579583,Set,2017_12_15_2126,
"[2.6, 2.6]",1,0,9,9,0,,,,,20,0,20,0,down,1.02550883859,GMV,f,19,60.0016579583,Set,2017_12_15_2126,
"[2.6, 2.6]",1,0,9,9,0,,,,,21,0,21,0,right,0.99211745229,GMV,f,19,60.0016579583,Set,2017_12_15_2126,
"[2.6, 2.6]",1,0,9,9,0,,,,,22,0,22,0,right,1.00876715832,GMV,f,19,60.0016579583,Set,2017_12_15_2126,
"[2.6, 2.6]",1,0,9,9,0,,,,,23,0,23,0,down,0.958795540064,GMV,f,19,60.0016579583,Set,2017_12_15_2126,
"[2.6, 2.6]",1,0,9,9,0,,,,,24,0,24,0,down,1.49211389961,GMV,f,19,60.0016579583,Set,2017_12_15_2126,
"[2.6, 2.6]",1,0,9,9,0,,,,,25,0,25,0,right,0.94217307106,GMV,f,19,60.0016579583,Set,2017_12_15_2126,
"[2.6, 2.6]",1,0,9,9,0,,,,,26,0,26,0,right,1.39212132074,GMV,f,19,60.0016579583,Set,2017_12_15_2126,
"[2.6, 2.6]",1,0,9,9,0,,,,,27,0,27,0,right,0.508798737486,GMV,f,19,60.0016579583,Set,2017_12_15_2126,
"[2.6, 2.6]",1,0,9,9,0,,,,,28,0,28,0,right,1.19214168927,GMV,f,19,60.0016579583,Set,2017_12_15_2126,
"[2.6, 2.6]",1,0,9,9,0,,,,,29,0,29,0,right,1.47544682506,GMV,f,19,60.0016579583,Set,2017_12_15_2126,
"[2.6, 2.6]",1,0,9,9,0,,,,,30,0,30,0,right,1.02545673301,GMV,f,19,60.0016579583,Set,2017_12_15_2126,
"[2.6, 2.6]",1,0,9,9,0,,,,,31,0,31,0,down,1.1421163865,GMV,f,19,60.0016579583,Set,2017_12_15_2126,
"[2.6, 2.6]",1,0,9,9,0,,,,,32,0,32,0,down,1.05886272469,GMV,f,19,60.0016579583,Set,2017_12_15_2126,
"[2.6, 2.6]",3,0,10,10,2,,,,,0,0,0,0,right,0.875440035568,GMV,f,19,60.0016579583,Set,2017_12_15_2126,
"[2.6, 2.6]",3,0,10,10,2,,,,,1,0,1,0,right,1.60879486901,GMV,f,19,60.0016579583,Set,2017_12_15_2126,
"[2.6, 2.6]",3,0,10,10,2,,,,,2,0,2,0,down,1.04212301812,GMV,f,19,60.0016579583,Set,2017_12_15_2126,
"[2.6, 2.6]",3,0,10,10,2,,,,,3,0,3,0,right,1.10877789522,GMV,f,19,60.0016579583,Set,2017_12_15_2126,
"[2.6, 2.6]",3,0,10,10,2,,,,,4,0,4,0,down,0.825458943553,GMV,f,19,60.0016579583,Set,2017_12_15_2126,
"[2.6, 2.6]",3,0,10,10,2,,,,,5,0,5,0,right,0.92546612781,GMV,f,19,60.0016579583,Set,2017_12_15_2126,
"[2.6, 2.6]",3,0,10,10,2,,,,,6,0,6,0,right,1.44210122852,GMV,f,19,60.0016579583,Set,2017_12_15_2126,
"[2.6, 2.6]",3,0,10,10,2,,,,,7,0,7,0,down,0.542118281242,GMV,f,19,60.0016579583,Set,2017_12_15_2126,
"[2.6, 2.6]",3,0,10,10,2,,,,,8,0,8,0,down,0.80877726365,GMV,f,19,60.0016579583,Set,2017_12_15_2126,
"[2.6, 2.6]",3,0,10,10,2,,,,,9,0,9,0,right,0.958796329563,GMV,f,19,60.0016579583,Set,2017_12_15_2126,
"[2.6, 2.6]",3,0,10,10,2,,,,,10,0,10,0,right,0.875335034914,GMV,f,19,60.0016579583,Set,2017_12_15_2126,
"[2.6, 2.6]",3,0,10,10,2,,,,,11,0,11,0,right,0.575471772609,GMV,f,19,60.0016579583,Set,2017_12_15_2126,
"[2.6, 2.6]",3,0,10,10,2,,,,,12,0,12,0,right,0.708778763656,GMV,f,19,60.0016579583,Set,2017_12_15_2126,
"[2.6, 2.6]",3,0,10,10,2,,,,,13,0,13,0,right,1.10877197416,GMV,f,19,60.0016579583,Set,2017_12_15_2126,
"[2.6, 2.6]",3,0,10,10,2,,,,,14,0,14,0,right,0.775471930509,GMV,f,19,60.0016579583,Set,2017_12_15_2126,
"[2.6, 2.6]",3,0,10,10,2,,,,,15,0,15,0,down,0.808781605796,GMV,f,19,60.0016579583,Set,2017_12_15_2126,
"[2.6, 2.6]",3,0,10,10,2,,,,,16,0,16,0,down,0.758777618903,GMV,f,19,60.0016579583,Set,2017_12_15_2126,
"[2.6, 2.6]",3,0,10,10,2,,,,,17,0,17,0,right,0.742141728755,GMV,f,19,60.0016579583,Set,2017_12_15_2126,
"[2.6, 2.6]",3,0,10,10,2,,,,,18,0,18,0,right,0.992109162791,GMV,f,19,60.0016579583,Set,2017_12_15_2126,
"[2.6, 2.6]",3,0,10,10,2,,,,,19,0,19,0,right,1.17545527249,GMV,f,19,60.0016579583,Set,2017_12_15_2126,
"[2.6, 2.6]",3,0,10,10,2,,,,,20,0,20,0,right,0.67558158905,GMV,f,19,60.0016579583,Set,2017_12_15_2126,
"[2.6, 2.6]",3,0,10,10,2,,,,,21,0,21,0,right,0.508810579631,GMV,f,19,60.0016579583,Set,2017_12_15_2126,
"[2.6, 2.6]",3,0,10,10,2,,,,,22,0,22,0,right,0.425490601629,GMV,f,19,60.0016579583,Set,2017_12_15_2126,
"[2.6, 2.6]",3,0,10,10,2,,,,,23,0,23,0,right,0.575463877787,GMV,f,19,60.0016579583,Set,2017_12_15_2126,
"[2.6, 2.6]",3,0,10,10,2,,,,,24,0,24,0,right,0.72546596991,GMV,f,19,60.0016579583,Set,2017_12_15_2126,
"[2.6, 2.6]",3,0,10,10,2,,,,,25,0,25,0,right,1.16688508904,GMV,f,19,60.0016579583,Set,2017_12_15_2126,
"[2.6, 2.6]",3,0,10,10,2,,,,,26,0,26,0,right,1.10878342157,GMV,f,19,60.0016579583,Set,2017_12_15_2126,
"[2.6, 2.6]",3,0,10,10,2,,,,,27,0,27,0,right,1.59196003026,GMV,f,19,60.0016579583,Set,2017_12_15_2126,
"[2.6, 2.6]",3,0,10,10,2,,,,,28,0,28,0,right,1.3254814437,GMV,f,19,60.0016579583,Set,2017_12_15_2126,
"[2.6, 2.6]",3,0,10,10,2,,,,,29,0,29,0,down,1.02545199616,GMV,f,19,60.0016579583,Set,2017_12_15_2126,
"[2.6, 2.6]",3,0,10,10,2,,,,,30,0,30,0,down,1.00878807952,GMV,f,19,60.0016579583,Set,2017_12_15_2126,
"[3.0, 3.0]",5,0,11,11,28,,,,,0,0,0,0,down,1.47546577256,GMV,f,19,60.0016579583,Set,2017_12_15_2126,
"[3.0, 3.0]",5,0,11,11,28,,,,,1,0,1,0,right,0.608776711015,GMV,f,19,60.0016579583,Set,2017_12_15_2126,
"[3.0, 3.0]",5,0,11,11,28,,,,,2,0,2,0,down,0.625486022676,GMV,f,19,60.0016579583,Set,2017_12_15_2126,
"[3.0, 3.0]",5,0,11,11,28,,,,,3,0,3,0,right,0.892120531236,GMV,f,19,60.0016579583,Set,2017_12_15_2126,
"[3.0, 3.0]",5,0,11,11,28,,,,,4,0,4,0,right,0.625477338413,GMV,f,19,60.0016579583,Set,2017_12_15_2126,
"[3.0, 3.0]",5,0,11,11,28,,,,,5,0,5,0,right,0.492118636525,GMV,f,19,60.0016579583,Set,2017_12_15_2126,
"[3.0, 3.0]",5,0,11,11,28,,,,,6,0,6,0,right,0.592109636433,GMV,f,19,60.0016579583,Set,2017_12_15_2126,
"[3.0, 3.0]",5,0,11,11,28,,,,,7,0,7,0,right,0.542145518237,GMV,f,19,60.0016579583,Set,2017_12_15_2126,
"[3.0, 3.0]",5,0,11,11,28,,,,,8,0,8,0,right,0.458790803212,GMV,f,19,60.0016579583,Set,2017_12_15_2126,
"[3.0, 3.0]",5,0,11,11,28,,,,,9,0,9,0,right,0.492130083934,GMV,f,19,60.0016579583,Set,2017_12_15_2126,
"[3.0, 3.0]",5,0,11,11,28,,,,,10,0,10,0,right,0.708775211009,GMV,f,19,60.0016579583,Set,2017_12_15_2126,
"[3.0, 3.0]",5,0,11,11,28,,,,,11,0,11,0,right,0.592115162814,GMV,f,19,60.0016579583,Set,2017_12_15_2126,
"[3.0, 3.0]",5,0,11,11,28,,,,,12,0,12,0,down,0.792090846866,GMV,f,19,60.0016579583,Set,2017_12_15_2126,
"[3.0, 3.0]",5,0,11,11,28,,,,,13,0,13,0,down,1.64211283386,GMV,f,19,60.0016579583,Set,2017_12_15_2126,
"[3.0, 3.0]",5,0,11,11,28,,,,,14,0,14,0,right,0.742022912251,GMV,f,19,60.0016579583,Set,2017_12_15_2126,
"[3.0, 3.0]",5,0,11,11,28,,,,,15,0,15,0,down,1.6168672863,GMV,f,19,60.0016579583,Set,2017_12_15_2126,
"[3.0, 3.0]",5,0,11,11,28,,,,,16,0,16,0,right,0.500243554125,GMV,f,19,60.0016579583,Set,2017_12_15_2126,
"[3.0, 3.0]",5,0,11,11,28,,,,,17,0,17,0,down,0.516891286446,GMV,f,19,60.0016579583,Set,2017_12_15_2126,
"[3.0, 3.0]",5,0,11,11,28,,,,,18,0,18,0,right,0.88356890055,GMV,f,19,60.0016579583,Set,2017_12_15_2126,
"[3.0, 3.0]",5,0,11,11,28,,,,,19,0,19,0,down,1.09210332061,GMV,f,19,60.0016579583,Set,2017_12_15_2126,
"[3.0, 3.0]",5,0,11,11,28,,,,,20,0,20,0,down,0.558776276797,GMV,f,19,60.0016579583,Set,2017_12_15_2126,
"[3.0, 3.0]",5,0,11,11,28,,,,,21,0,21,0,right,0.842134702398,GMV,f,19,60.0016579583,Set,2017_12_15_2126,
"[3.0, 3.0]",5,0,11,11,28,,,,,22,0,22,0,left,1.0421360445,GMV,f,19,60.0016579583,Set,2017_12_15_2126,
"[3.0, 3.0]",5,0,11,11,28,,,,,23,0,23,0,right,0.725486496347,GMV,f,19,60.0016579583,Set,2017_12_15_2126,
"[3.0, 3.0]",5,0,11,11,28,,,,,24,0,24,0,right,0.792124794447,GMV,f,19,60.0016579583,Set,2017_12_15_2126,
"[3.0, 3.0]",5,0,11,11,28,,,,,25,0,25,0,down,0.692129847128,GMV,f,19,60.0016579583,Set,2017_12_15_2126,
"[3.0, 3.0]",5,0,11,11,28,,,,,26,0,26,0,right,0.375466483092,GMV,f,19,60.0016579583,Set,2017_12_15_2126,
"[3.0, 3.0]",5,0,11,11,28,,,,,27,0,27,0,right,0.392110662768,GMV,f,19,60.0016579583,Set,2017_12_15_2126,
"[3.0, 3.0]",5,0,11,11,28,,,,,28,0,28,0,down,1.35879625063,GMV,f,19,60.0016579583,Set,2017_12_15_2126,
"[3.0, 3.0]",5,0,11,11,28,,,,,29,0,29,0,right,1.29212479445,GMV,f,19,60.0016579583,Set,2017_12_15_2126,
"[3.0, 3.0]",5,0,11,11,28,,,,,30,0,30,0,right,0.942074386228,GMV,f,19,60.0016579583,Set,2017_12_15_2126,
"[3.0, 3.0]",5,0,11,11,28,,,,,31,0,31,0,down,1.65876925044,GMV,f,19,60.0016579583,Set,2017_12_15_2126,
"[3.0, 3.0]",5,0,11,11,28,,,,,32,0,32,0,right,0.658795303258,GMV,f,19,60.0016579583,Set,2017_12_15_2126,
"[3.0, 3.0]",5,0,11,11,28,,,,,33,0,33,0,right,0.875484246353,GMV,f,19,60.0016579583,Set,2017_12_15_2126,
"[3.0, 3.0]",5,0,11,11,28,,,,,34,0,34,0,right,0.892121320736,GMV,f,19,60.0016579583,Set,2017_12_15_2126,
"[3.0, 3.0]",5,0,11,11,28,,,,,35,0,35,0,right,0.658788197936,GMV,f,19,60.0016579583,Set,2017_12_15_2126,
"[3.0, 3.0]",5,0,11,11,28,,,,,36,0,36,0,right,0.558789303206,GMV,f,19,60.0016579583,Set,2017_12_15_2126,
"[3.0, 3.0]",5,0,11,11,28,,,,,37,0,37,0,right,0.79210347851,GMV,f,19,60.0016579583,Set,2017_12_15_2126,
"[3.0, 3.0]",5,0,11,11,28,,,,,38,0,38,0,right,0.875445956655,GMV,f,19,60.0016579583,Set,2017_12_15_2126,
"[3.0, 3.0]",5,0,11,11,28,,,,,39,0,39,0,right,1.29213426818,GMV,f,19,60.0016579583,Set,2017_12_15_2126,
"[3.0, 3.0]",5,0,11,11,28,,,,,40,0,40,0,right,1.10883315871,GMV,f,19,60.0016579583,Set,2017_12_15_2126,
"[3.0, 3.0]",5,0,11,11,28,,,,,41,0,41,0,right,1.22542807498,GMV,f,19,60.0016579583,Set,2017_12_15_2126,
"[3.0, 3.0]",5,0,11,11,28,,,,,42,0,42,0,down,0.808776868915,GMV,f,19,60.0016579583,Set,2017_12_15_2126,
"[3.0, 3.0]",5,0,11,11,28,,,,,43,0,43,0,down,0.633557650464,GMV,f,19,60.0016579583,Set,2017_12_15_2126,
"[2.9, 2.9]",1,0,12,12,18,,,,,0,0,0,0,down,1.87544082504,GMV,f,19,60.0016579583,Set,2017_12_15_2126,
"[2.9, 2.9]",1,0,12,12,18,,,,,1,0,1,0,right,1.32543960135,GMV,f,19,60.0016579583,Set,2017_12_15_2126,
"[2.9, 2.9]",1,0,12,12,18,,,,,2,0,2,0,down,1.02547331207,GMV,f,19,60.0016579583,Set,2017_12_15_2126,
"[2.9, 2.9]",1,0,12,12,18,,,,,3,0,3,0,left,1.19212708395,GMV,f,19,60.0016579583,Set,2017_12_15_2126,
"[2.9, 2.9]",1,0,12,12,18,,,,,4,0,4,0,down,1.02546896995,GMV,f,19,60.0016579583,Set,2017_12_15_2126,
"[2.9, 2.9]",1,0,12,12,18,,,,,5,0,5,0,right,1.29215361041,GMV,f,19,60.0016579583,Set,2017_12_15_2126,
"[2.9, 2.9]",1,0,12,12,18,,,,,6,0,6,0,right,0.558773908357,GMV,f,19,60.0016579583,Set,2017_12_15_2126,
"[2.9, 2.9]",1,0,12,12,18,,,,,7,0,7,0,right,1.47543971977,GMV,f,19,60.0016579583,Set,2017_12_15_2126,
"[2.9, 2.9]",1,0,12,12,18,,,,,8,0,8,0,right,1.35874059238,GMV,f,19,60.0016579583,Set,2017_12_15_2126,
"[2.9, 2.9]",1,0,12,12,18,,,,,9,0,9,0,right,1.5921704263,GMV,f,19,60.0016579583,Set,2017_12_15_2126,
"[2.9, 2.9]",1,0,12,12,18,,,,,10,0,10,0,down,0.958798303269,GMV,f,19,60.0016579583,Set,2017_12_15_2126,
"[2.9, 2.9]",1,0,12,12,18,,,,,11,0,11,0,down,1.07546387782,GMV,f,19,60.0016579583,Set,2017_12_15_2126,
"[2.9, 2.9]",1,0,12,12,18,,,,,12,0,12,0,right,0.625290626747,GMV,f,19,60.0016579583,Set,2017_12_15_2126,
"[2.9, 2.9]",1,0,12,12,18,,,,,13,0,13,0,right,0.692095110076,GMV,f,19,60.0016579583,Set,2017_12_15_2126,
"[2.9, 2.9]",1,0,12,12,18,,,,,14,0,14,0,right,0.542119465448,GMV,f,19,60.0016579583,Set,2017_12_15_2126,
"[2.9, 2.9]",1,0,12,12,18,,,,,15,0,15,0,right,0.975454325118,GMV,f,19,60.0016579583,Set,2017_12_15_2126,
"[2.9, 2.9]",1,0,12,12,18,,,,,16,0,16,0,down,0.758802882221,GMV,f,19,60.0016579583,Set,2017_12_15_2126,
"[2.9, 2.9]",1,0,12,12,18,,,,,17,0,17,0,right,0.592122662842,GMV,f,19,60.0016579583,Set,2017_12_15_2126,
"[2.9, 2.9]",1,0,12,12,18,,,,,18,0,18,0,right,0.575482035812,GMV,f,19,60.0016579583,Set,2017_12_15_2126,
"[2.9, 2.9]",1,0,12,12,18,,,,,19,0,19,0,right,0.492114689114,GMV,f,19,60.0016579583,Set,2017_12_15_2126,
"[2.9, 2.9]",1,0,12,12,18,,,,,20,0,20,0,down,0.642101781152,GMV,f,19,60.0016579583,Set,2017_12_15_2126,
"[2.9, 2.9]",1,0,12,12,18,,,,,21,0,21,0,down,0.608770789928,GMV,f,19,60.0016579583,Set,2017_12_15_2126,
"[3.0, 3.0]",3,0,13,13,26,,,,,0,0,0,0,down,0.950242725143,GMV,f,19,60.0016579583,Set,2017_12_15_2126,
"[3.0, 3.0]",3,0,13,13,26,,,,,1,0,1,0,down,1.29214571562,GMV,f,19,60.0016579583,Set,2017_12_15_2126,
"[3.0, 3.0]",3,0,13,13,26,,,,,2,0,2,0,right,0.64197309615,GMV,f,19,60.0016579583,Set,2017_12_15_2126,
"[3.0, 3.0]",3,0,13,13,26,,,,,3,0,3,0,right,0.76690766812,GMV,f,19,60.0016579583,Set,2017_12_15_2126,
"[3.0, 3.0]",3,0,13,13,26,,,,,4,0,4,0,down,0.642134544498,GMV,f,19,60.0016579583,Set,2017_12_15_2126,
"[3.0, 3.0]",3,0,13,13,26,,,,,5,0,5,0,down,0.97545985147,GMV,f,19,60.0016579583,Set,2017_12_15_2126,
"[3.0, 3.0]",3,0,13,13,26,,,,,6,0,6,0,right,1.94210162322,GMV,f,19,60.0016579583,Set,2017_12_15_2126,
"[3.0, 3.0]",3,0,13,13,26,,,,,7,0,7,0,right,0.87547556209,GMV,f,19,60.0016579583,Set,2017_12_15_2126,
"[3.0, 3.0]",3,0,13,13,26,,,,,8,0,8,0,down,0.758829724509,GMV,f,19,60.0016579583,Set,2017_12_15_2126,
"[3.0, 3.0]",3,0,13,13,26,,,,,9,0,9,0,down,0.508781368932,GMV,f,19,60.0016579583,Set,2017_12_15_2126,
"[2.8, 2.8]",4,0,14,14,15,,,,,0,0,0,0,right,1.39195513551,GMV,f,19,60.0016579583,Set,2017_12_15_2126,
"[2.8, 2.8]",4,0,14,14,15,,,,,1,0,1,0,down,0.691954188165,GMV,f,19,60.0016579583,Set,2017_12_15_2126,
"[2.8, 2.8]",4,0,14,14,15,,,,,2,0,2,0,down,0.992115478613,GMV,f,19,60.0016579583,Set,2017_12_15_2126,
"[2.8, 2.8]",4,0,14,14,15,,,,,3,0,3,0,right,2.0919923989,GMV,f,19,60.0016579583,Set,2017_12_15_2126,
"[2.8, 2.8]",4,0,14,14,15,,,,,4,0,4,0,right,0.533570597938,GMV,f,19,60.0016579583,Set,2017_12_15_2126,
"[2.8, 2.8]",4,0,14,14,15,,,,,5,0,5,0,down,0.60024363306,GMV,f,19,60.0016579583,Set,2017_12_15_2126,
"[2.8, 2.8]",4,0,14,14,15,,,,,6,0,6,0,down,1.00032092302,GMV,f,19,60.0016579583,Set,2017_12_15_2126,
"[2.6, 2.6]",2,0,15,15,1,,,,,0,0,0,0,down,1.10879605322,GMV,f,19,60.0016579583,Set,2017_12_15_2126,
"[2.6, 2.6]",2,0,15,15,1,,,,,1,0,1,0,down,1.05884496143,GMV,f,19,60.0016579583,Set,2017_12_15_2126,
"[2.7, 2.7]",4,0,16,16,9,,,,,0,0,0,0,down,1.042145913,GMV,f,19,60.0016579583,Set,2017_12_15_2126,
"[2.7, 2.7]",4,0,16,16,9,,,,,1,0,1,0,right,1.39215566305,GMV,f,19,60.0016579583,Set,2017_12_15_2126,
"[2.7, 2.7]",4,0,16,16,9,,,,,2,0,2,0,right,0.942135176098,GMV,f,19,60.0016579583,Set,2017_12_15_2126,
"[2.7, 2.7]",4,0,16,16,9,,,,,3,0,3,0,down,0.758799329575,GMV,f,19,60.0016579583,Set,2017_12_15_2126,
"[2.7, 2.7]",4,0,16,16,9,,,,,4,0,4,0,down,1.19210695225,GMV,f,19,60.0016579583,Set,2017_12_15_2126,
"[2.9, 2.9]",5,0,17,17,22,,,,,0,0,0,0,left,2.41688252322,GMV,f,19,60.0016579583,Set,2017_12_15_2126,
"[2.9, 2.9]",5,0,17,17,22,,,,,1,0,1,0,down,1.17549514116,GMV,f,19,60.0016579583,Set,2017_12_15_2126,
"[2.9, 2.9]",5,0,17,17,22,,,,,2,0,2,0,left,0.992123373377,GMV,f,19,60.0016579583,Set,2017_12_15_2126,
"[2.9, 2.9]",5,0,17,17,22,,,,,3,0,3,0,down,1.79210979433,GMV,f,19,60.0016579583,Set,2017_12_15_2126,
"[2.9, 2.9]",5,0,17,17,22,,,,,4,0,4,0,down,0.792145715619,GMV,f,19,60.0016579583,Set,2017_12_15_2126,
"[3.0, 3.0]",1,0,18,18,24,,,,,0,0,0,0,down,1.04211196539,GMV,f,19,60.0016579583,Set,2017_12_15_2126,
"[3.0, 3.0]",1,0,18,18,24,,,,,1,0,1,0,down,1.37544674613,GMV,f,19,60.0016579583,Set,2017_12_15_2126,
"[3.0, 3.0]",1,0,18,18,24,,,,,2,0,2,0,right,0.892124083912,GMV,f,19,60.0016579583,Set,2017_12_15_2126,
"[3.0, 3.0]",1,0,18,18,24,,,,,3,0,3,0,right,0.925491391128,GMV,f,19,60.0016579583,Set,2017_12_15_2126,
"[3.0, 3.0]",1,0,18,18,24,,,,,4,0,4,0,right,0.458784092625,GMV,f,19,60.0016579583,Set,2017_12_15_2126,
"[3.0, 3.0]",1,0,18,18,24,,,,,5,0,5,0,down,0.658796092728,GMV,f,19,60.0016579583,Set,2017_12_15_2126,
"[3.0, 3.0]",1,0,18,18,24,,,,,6,0,6,0,down,0.758789461106,GMV,f,19,60.0016579583,Set,2017_12_15_2126,
"[3.0, 3.0]",1,0,18,18,24,,,,,7,0,7,0,right,0.458781724185,GMV,f,19,60.0016579583,Set,2017_12_15_2126,
"[3.0, 3.0]",1,0,18,18,24,,,,,8,0,8,0,right,0.725455706706,GMV,f,19,60.0016579583,Set,2017_12_15_2126,
"[3.0, 3.0]",1,0,18,18,24,,,,,9,0,9,0,right,0.892139084026,GMV,f,19,60.0016579583,Set,2017_12_15_2126,
"[3.0, 3.0]",1,0,18,18,24,,,,,10,0,10,0,down,0.75881275069,GMV,f,19,60.0016579583,Set,2017_12_15_2126,
"[3.0, 3.0]",1,0,18,18,24,,,,,11,0,11,0,down,0.725447811914,GMV,f,19,60.0016579583,Set,2017_12_15_2126,
"[2.8, 2.8]",6,0,19,19,17,,,,,0,0,0,0,right,1.49210876803,GMV,f,19,60.0016579583,Set,2017_12_15_2126,
"[2.8, 2.8]",6,0,19,19,17,,,,,1,0,1,0,down,0.708776395215,GMV,f,19,60.0016579583,Set,2017_12_15_2126,
"[2.8, 2.8]",6,0,19,19,17,,,,,2,0,2,0,down,1.09194621441,GMV,f,19,60.0016579583,Set,2017_12_15_2126,
"[2.8, 2.8]",6,0,19,19,17,,,,,3,0,3,0,right,0.692142084008,GMV,f,19,60.0016579583,Set,2017_12_15_2126,
"[2.8, 2.8]",6,0,19,19,17,,,,,4,0,4,0,down,0.608785790013,GMV,f,19,60.0016579583,Set,2017_12_15_2126,
"[2.8, 2.8]",6,0,19,19,17,,,,,5,0,5,0,right,0.592186215887,GMV,f,19,60.0016579583,Set,2017_12_15_2126,
"[2.8, 2.8]",6,0,19,19,17,,,,,6,0,6,0,down,0.608782632102,GMV,f,19,60.0016579583,Set,2017_12_15_2126,
"[2.8, 2.8]",6,0,19,19,17,,,,,7,0,7,0,right,0.525474891037,GMV,f,19,60.0016579583,Set,2017_12_15_2126,
"[2.8, 2.8]",6,0,19,19,17,,,,,8,0,8,0,right,0.725491627963,GMV,f,19,60.0016579583,Set,2017_12_15_2126,
"[2.8, 2.8]",6,0,19,19,17,,,,,9,0,9,0,right,0.358802171686,GMV,f,19,60.0016579583,Set,2017_12_15_2126,
"[2.8, 2.8]",6,0,19,19,17,,,,,10,0,10,0,right,0.475472483144,GMV,f,19,60.0016579583,Set,2017_12_15_2126,
"[2.8, 2.8]",6,0,19,19,17,,,,,11,0,11,0,right,0.658796487434,GMV,f,19,60.0016579583,Set,2017_12_15_2126,
"[2.8, 2.8]",6,0,19,19,17,,,,,12,0,12,0,right,0.55864719706,GMV,f,19,60.0016579583,Set,2017_12_15_2126,
"[2.8, 2.8]",6,0,19,19,17,,,,,13,0,13,0,down,1.40879905326,GMV,f,19,60.0016579583,Set,2017_12_15_2126,
"[2.8, 2.8]",6,0,19,19,17,,,,,14,0,14,0,down,1.02534620604,GMV,f,19,60.0016579583,Set,2017_12_15_2126,
"[2.9, 2.9]",4,0,20,20,21,,,,,0,0,0,0,down,1.08357853218,GMV,f,19,60.0016579583,Set,2017_12_15_2126,
"[2.9, 2.9]",4,0,20,20,21,,,,,1,0,1,0,down,0.525464627804,GMV,f,19,60.0016579583,Set,2017_12_15_2126,
"[3.0, 3.0]",6,0,21,21,29,,,,,0,0,0,0,down,0.983577663777,GMV,f,19,60.0016579583,Set,2017_12_15_2126,
"[3.0, 3.0]",6,0,21,21,29,,,,,1,0,1,0,down,0.758786303166,GMV,f,19,60.0016579583,Set,2017_12_15_2126,
"[2.7, 2.7]",2,0,22,22,7,,,,,0,0,0,0,right,0.933659335307,GMV,f,19,60.0016579583,Set,2017_12_15_2126,
"[2.7, 2.7]",2,0,22,22,7,,,,,1,0,1,0,right,0.492115478613,GMV,f,19,60.0016579583,Set,2017_12_15_2126,
"[2.7, 2.7]",2,0,22,22,7,,,,,2,0,2,0,down,0.892128820764,GMV,f,19,60.0016579583,Set,2017_12_15_2126,
"[2.7, 2.7]",2,0,22,22,7,,,,,3,0,3,0,right,0.342129176046,GMV,f,19,60.0016579583,Set,2017_12_15_2126,
"[2.7, 2.7]",2,0,22,22,7,,,,,4,0,4,0,left,0.608803158539,GMV,f,19,60.0016579583,Set,2017_12_15_2126,
"[2.7, 2.7]",2,0,22,22,7,,,,,5,0,5,0,left,1.24212988658,GMV,f,19,60.0016579583,Set,2017_12_15_2126,
"[2.7, 2.7]",2,0,22,22,7,,,,,6,0,6,0,right,0.52546818048,GMV,f,19,60.0016579583,Set,2017_12_15_2126,
"[2.7, 2.7]",2,0,22,22,7,,,,,7,0,7,0,right,0.642124676029,GMV,f,19,60.0016579583,Set,2017_12_15_2126,
"[2.7, 2.7]",2,0,22,22,7,,,,,8,0,8,0,right,0.71690328652,GMV,f,19,60.0016579583,Set,2017_12_15_2126,
"[2.7, 2.7]",2,0,22,22,7,,,,,9,0,9,0,down,1.06691619448,GMV,f,19,60.0016579583,Set,2017_12_15_2126,
"[2.7, 2.7]",2,0,22,22,7,,,,,10,0,10,0,down,0.983534242463,GMV,f,19,60.0016579583,Set,2017_12_15_2126,
"[2.7, 2.7]",2,0,22,22,7,,,,,11,0,11,0,right,0.625433522364,GMV,f,19,60.0016579583,Set,2017_12_15_2126,
"[2.7, 2.7]",2,0,22,22,7,,,,,12,0,12,0,down,0.975470509438,GMV,f,19,60.0016579583,Set,2017_12_15_2126,
"[2.7, 2.7]",2,0,22,22,7,,,,,13,0,13,0,down,1.40878523738,GMV,f,19,60.0016579583,Set,2017_12_15_2126,
"[2.8, 2.8]",1,0,23,23,12,,,,,0,0,0,0,right,1.91690147071,GMV,f,19,60.0016579583,Set,2017_12_15_2126,
"[2.8, 2.8]",1,0,23,23,12,,,,,1,0,1,0,down,0.425462575164,GMV,f,19,60.0016579583,Set,2017_12_15_2126,
"[2.8, 2.8]",1,0,23,23,12,,,,,2,0,2,0,down,0.54214275509,GMV,f,19,60.0016579583,Set,2017_12_15_2126,
"[2.8, 2.8]",3,0,24,24,14,,,,,0,0,0,0,down,1.0169066813,GMV,f,19,60.0016579583,Set,2017_12_15_2126,
"[2.8, 2.8]",3,0,24,24,14,,,,,1,0,1,0,down,0.57544650929,GMV,f,19,60.0016579583,Set,2017_12_15_2126,
"[2.6, 2.6]",5,0,25,25,4,,,,,0,0,0,0,down,1.00875807932,GMV,f,19,60.0016579583,Set,2017_12_15_2126,
"[2.6, 2.6]",5,0,25,25,4,,,,,1,0,1,0,right,1.87544240401,GMV,f,19,60.0016579583,Set,2017_12_15_2126,
"[2.6, 2.6]",5,0,25,25,4,,,,,2,0,2,0,down,2.0254433119,GMV,f,19,60.0016579583,Set,2017_12_15_2126,
"[2.6, 2.6]",5,0,25,25,4,,,,,3,0,3,0,down,1.35877532943,GMV,f,19,60.0016579583,Set,2017_12_15_2126,
"[3.0, 3.0]",2,0,26,26,25,,,,,0,0,0,0,down,2.56687672058,GMV,f,19,60.0016579583,Set,2017_12_15_2126,
"[3.0, 3.0]",2,0,26,26,25,,,,,1,0,1,0,right,2.70880284277,GMV,f,19,60.0016579583,Set,2017_12_15_2126,
"[3.0, 3.0]",2,0,26,26,25,,,,,2,0,2,0,right,0.525469364686,GMV,f,19,60.0016579583,Set,2017_12_15_2126,
"[3.0, 3.0]",2,0,26,26,25,,,,,3,0,3,0,right,0.908788000554,GMV,f,19,60.0016579583,Set,2017_12_15_2126,
"[3.0, 3.0]",2,0,26,26,25,,,,,4,0,4,0,left,1.14207178098,GMV,f,19,60.0016579583,Set,2017_12_15_2126,
"[3.0, 3.0]",2,0,26,26,25,,,,,5,0,5,0,down,1.34211614967,GMV,f,19,60.0016579583,Set,2017_12_15_2126,
"[3.0, 3.0]",2,0,26,26,25,,,,,6,0,6,0,down,1.42545152249,GMV,f,19,60.0016579583,Set,2017_12_15_2126,
"[3.0, 3.0]",2,0,26,26,25,,,,,7,0,7,0,left,1.57529690312,GMV,f,19,60.0016579583,Set,2017_12_15_2126,
"[3.0, 3.0]",2,0,26,26,25,,,,,8,0,8,0,down,1.17546829887,GMV,f,19,60.0016579583,Set,2017_12_15_2126,
"[3.0, 3.0]",2,0,26,26,25,,,,,9,0,9,0,down,0.875456614594,GMV,f,19,60.0016579583,Set,2017_12_15_2126,
"[2.7, 2.7]",5,0,27,27,10,,,,,0,0,0,0,right,1.26691556291,GMV,f,19,60.0016579583,Set,2017_12_15_2126,
"[2.7, 2.7]",5,0,27,27,10,,,,,1,0,1,0,down,0.925472443661,GMV,f,19,60.0016579583,Set,2017_12_15_2126,
"[2.7, 2.7]",5,0,27,27,10,,,,,2,0,2,0,down,1.69209511005,GMV,f,19,60.0016579583,Set,2017_12_15_2126,
"[2.7, 2.7]",5,0,27,27,10,,,,,3,0,3,0,right,1.00882636922,GMV,f,19,60.0016579583,Set,2017_12_15_2126,
"[2.7, 2.7]",5,0,27,27,10,,,,,4,0,4,0,right,1.25877801367,GMV,f,19,60.0016579583,Set,2017_12_15_2126,
"[2.7, 2.7]",5,0,27,27,10,,,,,5,0,5,0,down,1.60876407937,GMV,f,19,60.0016579583,Set,2017_12_15_2126,
"[2.7, 2.7]",5,0,27,27,10,,,,,6,0,6,0,right,0.858804145391,GMV,f,19,60.0016579583,Set,2017_12_15_2126,
"[2.7, 2.7]",5,0,27,27,10,,,,,7,0,7,0,right,0.825471575226,GMV,f,19,60.0016579583,Set,2017_12_15_2126,
"[2.7, 2.7]",5,0,27,27,10,,,,,8,0,8,0,right,0.675466719927,GMV,f,19,60.0016579583,Set,2017_12_15_2126,
"[2.7, 2.7]",5,0,27,27,10,,,,,9,0,9,0,down,0.525458312011,GMV,f,19,60.0016579583,Set,2017_12_15_2126,
"[2.7, 2.7]",5,0,27,27,10,,,,,10,0,10,0,down,0.47544445665,GMV,f,19,60.0016579583,Set,2017_12_15_2126,
"[2.9, 2.9]",2,0,28,28,19,,,,,0,0,0,0,down,1.90877615838,GMV,f,19,60.0016579583,Set,2017_12_15_2126,
"[2.9, 2.9]",2,0,28,28,19,,,,,1,0,1,0,left,0.725444259268,GMV,f,19,60.0016579583,Set,2017_12_15_2126,
"[2.9, 2.9]",2,0,28,28,19,,,,,2,0,2,0,right,1.04211314963,GMV,f,19,60.0016579583,Set,2017_12_15_2126,
"[2.9, 2.9]",2,0,28,28,19,,,,,3,0,3,0,down,0.9254329697,GMV,f,19,60.0016579583,Set,2017_12_15_2126,
"[2.9, 2.9]",2,0,28,28,19,,,,,4,0,4,0,down,0.875481483177,GMV,f,19,60.0016579583,Set,2017_12_15_2126,
"[2.9, 2.9]",2,0,28,28,19,,,,,5,0,5,0,right,0.875419903867,GMV,f,19,60.0016579583,Set,2017_12_15_2126,
"[2.9, 2.9]",2,0,28,28,19,,,,,6,0,6,0,left,0.87544319345,GMV,f,19,60.0016579583,Set,2017_12_15_2126,
"[2.9, 2.9]",2,0,28,28,19,,,,,7,0,7,0,down,0.425473233132,GMV,f,19,60.0016579583,Set,2017_12_15_2126,
"[2.9, 2.9]",2,0,28,28,19,,,,,8,0,8,0,right,0.575452430377,GMV,f,19,60.0016579583,Set,2017_12_15_2126,
"[2.9, 2.9]",2,0,28,28,19,,,,,9,0,9,0,down,0.67544303558,GMV,f,19,60.0016579583,Set,2017_12_15_2126,
"[2.9, 2.9]",2,0,28,28,19,,,,,10,0,10,0,right,0.592142005073,GMV,f,19,60.0016579583,Set,2017_12_15_2126,
"[2.9, 2.9]",2,0,28,28,19,,,,,11,0,11,0,down,0.808782790002,GMV,f,19,60.0016579583,Set,2017_12_15_2126,
"[2.9, 2.9]",2,0,28,28,19,,,,,12,0,12,0,down,0.858779671544,GMV,f,19,60.0016579583,Set,2017_12_15_2126,
"[2.9, 2.9]",2,0,28,28,19,,,,,13,0,13,0,left,1.0754887464,GMV,f,19,60.0016579583,Set,2017_12_15_2126,
"[2.9, 2.9]",2,0,28,28,19,,,,,14,0,14,0,down,0.908793526905,GMV,f,19,60.0016579583,Set,2017_12_15_2126,
"[2.9, 2.9]",2,0,28,28,19,,,,,15,0,15,0,right,1.79209005737,GMV,f,19,60.0016579583,Set,2017_12_15_2126,
"[2.9, 2.9]",2,0,28,28,19,,,,,16,0,16,0,down,1.3254451277,GMV,f,19,60.0016579583,Set,2017_12_15_2126,
"[2.9, 2.9]",2,0,28,28,19,,,,,17,0,17,0,left,0.825409995916,GMV,f,19,60.0016579583,Set,2017_12_15_2126,
"[2.9, 2.9]",2,0,28,28,19,,,,,18,0,18,0,left,1.35878480319,GMV,f,19,60.0016579583,Set,2017_12_15_2126,
"[2.9, 2.9]",2,0,28,28,19,,,,,19,0,19,0,right,1.27545219354,GMV,f,19,60.0016579583,Set,2017_12_15_2126,
"[2.9, 2.9]",2,0,28,28,19,,,,,20,0,20,0,right,0.592121873371,GMV,f,19,60.0016579583,Set,2017_12_15_2126,
"[2.9, 2.9]",2,0,28,28,19,,,,,21,0,21,0,down,0.825441969791,GMV,f,19,60.0016579583,Set,2017_12_15_2126,
"[2.9, 2.9]",2,0,28,28,19,,,,,22,0,22,0,right,1.89212447868,GMV,f,19,60.0016579583,Set,2017_12_15_2126,
"[2.9, 2.9]",2,0,28,28,19,,,,,23,0,23,0,right,1.5754184828,GMV,f,19,60.0016579583,Set,2017_12_15_2126,
"[2.9, 2.9]",2,0,28,28,19,,,,,24,0,24,0,down,2.02542436443,GMV,f,19,60.0016579583,Set,2017_12_15_2126,
"[2.9, 2.9]",2,0,28,28,19,,,,,25,0,25,0,right,1.1754694831,GMV,f,19,60.0016579583,Set,2017_12_15_2126,
"[2.9, 2.9]",2,0,28,28,19,,,,,26,0,26,0,left,1.67546750943,GMV,f,19,60.0016579583,Set,2017_12_15_2126,
"[2.9, 2.9]",2,0,28,28,19,,,,,27,0,27,0,right,1.37544319348,GMV,f,19,60.0016579583,Set,2017_12_15_2126,
"[2.9, 2.9]",2,0,28,28,19,,,,,28,0,28,0,right,2.05882996134,GMV,f,19,60.0016579583,Set,2017_12_15_2126,
"[2.9, 2.9]",2,0,28,28,19,,,,,29,0,29,0,left,1.67548172001,GMV,f,19,60.0016579583,Set,2017_12_15_2126,
"[2.9, 2.9]",2,0,28,28,19,,,,,30,0,30,0,right,0.975443272415,GMV,f,19,60.0016579583,Set,2017_12_15_2126,
"[2.9, 2.9]",2,0,28,28,19,,,,,31,0,31,0,right,0.558827987639,GMV,f,19,60.0016579583,Set,2017_12_15_2126,
"[2.9, 2.9]",2,0,28,28,19,,,,,32,0,32,0,right,0.775471930479,GMV,f,19,60.0016579583,Set,2017_12_15_2126,
"[2.9, 2.9]",2,0,28,28,19,,,,,33,0,33,0,right,1.65884425089,GMV,f,19,60.0016579583,Set,2017_12_15_2126,
"[2.9, 2.9]",2,0,28,28,19,,,,,34,0,34,0,right,0.325477101578,GMV,f,19,60.0016579583,Set,2017_12_15_2126,
"[2.9, 2.9]",2,0,28,28,19,,,,,35,0,35,0,right,0.508775053109,GMV,f,19,60.0016579583,Set,2017_12_15_2126,
"[2.9, 2.9]",2,0,28,28,19,,,,,36,0,36,0,right,0.408818000753,GMV,f,19,60.0016579583,Set,2017_12_15_2126,
"[2.9, 2.9]",2,0,28,28,19,,,,,37,0,37,0,right,0.625474180502,GMV,f,19,60.0016579583,Set,2017_12_15_2126,
"[2.9, 2.9]",2,0,28,28,19,,,,,38,0,38,0,right,0.492108373292,GMV,f,19,60.0016579583,Set,2017_12_15_2126,
"[2.9, 2.9]",2,0,28,28,19,,,,,39,0,39,0,down,1.54209854428,GMV,f,19,60.0016579583,Set,2017_12_15_2126,
"[2.9, 2.9]",2,0,28,28,19,,,,,40,0,40,0,down,0.675460798841,GMV,f,19,60.0016579583,Set,2017_12_15_2126,
"[2.8, 2.8]",5,0,29,29,16,,,,,0,0,0,0,left,0.800453792239,GMV,f,19,60.0016579583,Set,2017_12_15_2126,
"[2.8, 2.8]",5,0,29,29,16,,,,,1,0,1,0,down,0.78359842705,GMV,f,19,60.0016579583,Set,2017_12_15_2126,
"[2.8, 2.8]",5,0,29,29,16,,,,,2,0,2,0,right,0.675454877754,GMV,f,19,60.0016579583,Set,2017_12_15_2126,
"[2.8, 2.8]",5,0,29,29,16,,,,,3,0,3,0,right,1.02545949619,GMV,f,19,60.0016579583,Set,2017_12_15_2126,
"[2.8, 2.8]",5,0,29,29,16,,,,,4,0,4,0,down,0.792122820741,GMV,f,19,60.0016579583,Set,2017_12_15_2126,
"[2.8, 2.8]",5,0,29,29,16,,,,,5,0,5,0,left,0.708802448033,GMV,f,19,60.0016579583,Set,2017_12_15_2126,
"[2.8, 2.8]",5,0,29,29,16,,,,,6,0,6,0,right,0.775531930849,GMV,f,19,60.0016579583,Set,2017_12_15_2126,
"[2.8, 2.8]",5,0,29,29,16,,,,,7,0,7,0,left,0.842134307662,GMV,f,19,60.0016579583,Set,2017_12_15_2126,
"[2.8, 2.8]",5,0,29,29,16,,,,,8,0,8,0,down,0.558793645323,GMV,f,19,60.0016579583,Set,2017_12_15_2126,
"[2.8, 2.8]",5,0,29,29,16,,,,,9,0,9,0,down,1.02545160142,GMV,f,19,60.0016579583,Set,2017_12_15_2126,
