size,n,trials_2.thisRepN,trials_2.thisTrialN,trials_2.thisN,trials_2.thisIndex,trials.thisRepN,trials.thisTrialN,trials.thisN,trials.thisIndex,trials_3.thisRepN,trials_3.thisTrialN,trials_3.thisN,trials_3.thisIndex,answer.keys,answer.rt,participant,gender,age,frameRate,expName,date,
"[3.0, 3.0]",5,0,0,0,28,,,,,0,0,0,0,right,7.3920617151,KAA,f,24,59.991427495,Set,2017_12_15_2005,
"[3.0, 3.0]",5,0,0,0,28,,,,,1,0,1,0,down,1.30877331627,KAA,f,24,59.991427495,Set,2017_12_15_2005,
"[3.0, 3.0]",5,0,0,0,28,,,,,2,0,2,0,down,0.675454877754,KAA,f,24,59.991427495,Set,2017_12_15_2005,
"[2.7, 2.7]",3,0,1,1,8,,,,,0,0,0,0,down,0.692139320861,KAA,f,24,59.991427495,Set,2017_12_15_2005,
"[2.7, 2.7]",3,0,1,1,8,,,,,1,0,1,0,down,0.358805329597,KAA,f,24,59.991427495,Set,2017_12_15_2005,
"[2.7, 2.7]",3,0,1,1,8,,,,,2,0,2,0,left,0.35878243472,KAA,f,24,59.991427495,Set,2017_12_15_2005,
"[2.7, 2.7]",3,0,1,1,8,,,,,3,0,3,0,left,0.358811250713,KAA,f,24,59.991427495,Set,2017_12_15_2005,
"[2.7, 2.7]",3,0,1,1,8,,,,,4,0,4,0,left,0.32543486447,KAA,f,24,59.991427495,Set,2017_12_15_2005,
"[2.7, 2.7]",3,0,1,1,8,,,,,5,0,5,0,down,1.07545677249,KAA,f,24,59.991427495,Set,2017_12_15_2005,
"[2.7, 2.7]",3,0,1,1,8,,,,,6,0,6,0,down,0.392186452693,KAA,f,24,59.991427495,Set,2017_12_15_2005,
"[2.7, 2.7]",3,0,1,1,8,,,,,7,0,7,0,left,0.208780737361,KAA,f,24,59.991427495,Set,2017_12_15_2005,
"[2.7, 2.7]",3,0,1,1,8,,,,,8,0,8,0,left,0.525478048949,KAA,f,24,59.991427495,Set,2017_12_15_2005,
"[2.7, 2.7]",3,0,1,1,8,,,,,9,0,9,0,left,0.658779908408,KAA,f,24,59.991427495,Set,2017_12_15_2005,
"[2.7, 2.7]",3,0,1,1,8,,,,,10,0,10,0,left,0.475454325118,KAA,f,24,59.991427495,Set,2017_12_15_2005,
"[2.7, 2.7]",3,0,1,1,8,,,,,11,0,11,0,down,0.658800434845,KAA,f,24,59.991427495,Set,2017_12_15_2005,
"[2.7, 2.7]",3,0,1,1,8,,,,,12,0,12,0,left,0.700248054141,KAA,f,24,59.991427495,Set,2017_12_15_2005,
"[2.7, 2.7]",3,0,1,1,8,,,,,13,0,13,0,down,0.658790171612,KAA,f,24,59.991427495,Set,2017_12_15_2005,
"[2.7, 2.7]",3,0,1,1,8,,,,,14,0,14,0,down,0.375444377685,KAA,f,24,59.991427495,Set,2017_12_15_2005,
"[2.6, 2.6]",1,0,2,2,0,,,,,0,0,0,0,down,0.783554611,KAA,f,24,59.991427495,Set,2017_12_15_2005,
"[2.6, 2.6]",1,0,2,2,0,,,,,1,0,1,0,left,0.275447456661,KAA,f,24,59.991427495,Set,2017_12_15_2005,
"[2.6, 2.6]",1,0,2,2,0,,,,,2,0,2,0,left,0.242131860257,KAA,f,24,59.991427495,Set,2017_12_15_2005,
"[2.6, 2.6]",1,0,2,2,0,,,,,3,0,3,0,down,0.50882439554,KAA,f,24,59.991427495,Set,2017_12_15_2005,
"[2.6, 2.6]",1,0,2,2,0,,,,,4,0,4,0,down,1.00876952676,KAA,f,24,59.991427495,Set,2017_12_15_2005,
"[2.6, 2.6]",1,0,2,2,0,,,,,5,0,5,0,left,0.32552881242,KAA,f,24,59.991427495,Set,2017_12_15_2005,
"[2.6, 2.6]",1,0,2,2,0,,,,,6,0,6,0,left,0.208803632238,KAA,f,24,59.991427495,Set,2017_12_15_2005,
"[2.6, 2.6]",1,0,2,2,0,,,,,7,0,7,0,left,0.24211054435,KAA,f,24,59.991427495,Set,2017_12_15_2005,
"[2.6, 2.6]",1,0,2,2,0,,,,,8,0,8,0,left,0.175304087374,KAA,f,24,59.991427495,Set,2017_12_15_2005,
"[2.6, 2.6]",1,0,2,2,0,,,,,9,0,9,0,left,0.242121597053,KAA,f,24,59.991427495,Set,2017_12_15_2005,
"[2.6, 2.6]",1,0,2,2,0,,,,,10,0,10,0,left,0.325468812051,KAA,f,24,59.991427495,Set,2017_12_15_2005,
"[2.6, 2.6]",1,0,2,2,0,,,,,11,0,11,0,down,0.458793961123,KAA,f,24,59.991427495,Set,2017_12_15_2005,
"[2.6, 2.6]",1,0,2,2,0,,,,,12,0,12,0,down,0.775439167133,KAA,f,24,59.991427495,Set,2017_12_15_2005,
"[2.6, 2.6]",1,0,2,2,0,,,,,13,0,13,0,left,0.575454798789,KAA,f,24,59.991427495,Set,2017_12_15_2005,
"[2.6, 2.6]",1,0,2,2,0,,,,,14,0,14,0,down,0.742128702346,KAA,f,24,59.991427495,Set,2017_12_15_2005,
"[2.6, 2.6]",1,0,2,2,0,,,,,15,0,15,0,down,0.875481088442,KAA,f,24,59.991427495,Set,2017_12_15_2005,
"[2.9, 2.9]",4,0,3,3,21,,,,,0,0,0,0,right,1.15878819791,KAA,f,24,59.991427495,Set,2017_12_15_2005,
"[2.9, 2.9]",4,0,3,3,21,,,,,1,0,1,0,left,0.525436601311,KAA,f,24,59.991427495,Set,2017_12_15_2005,
"[2.9, 2.9]",4,0,3,3,21,,,,,2,0,2,0,left,0.608782237367,KAA,f,24,59.991427495,Set,2017_12_15_2005,
"[2.9, 2.9]",4,0,3,3,21,,,,,3,0,3,0,right,0.225458075147,KAA,f,24,59.991427495,Set,2017_12_15_2005,
"[2.9, 2.9]",4,0,3,3,21,,,,,4,0,4,0,left,0.408784053172,KAA,f,24,59.991427495,Set,2017_12_15_2005,
"[2.9, 2.9]",4,0,3,3,21,,,,,5,0,5,0,down,0.525509628089,KAA,f,24,59.991427495,Set,2017_12_15_2005,
"[2.9, 2.9]",4,0,3,3,21,,,,,6,0,6,0,down,0.575473746285,KAA,f,24,59.991427495,Set,2017_12_15_2005,
"[2.6, 2.6]",6,0,4,4,5,,,,,0,0,0,0,left,0.592128978693,KAA,f,24,59.991427495,Set,2017_12_15_2005,
"[2.6, 2.6]",6,0,4,4,5,,,,,1,0,1,0,left,0.458783697919,KAA,f,24,59.991427495,Set,2017_12_15_2005,
"[2.6, 2.6]",6,0,4,4,5,,,,,2,0,2,0,down,0.558807461202,KAA,f,24,59.991427495,Set,2017_12_15_2005,
"[2.6, 2.6]",6,0,4,4,5,,,,,3,0,3,0,down,0.458822777087,KAA,f,24,59.991427495,Set,2017_12_15_2005,
"[2.7, 2.7]",4,0,5,5,9,,,,,0,0,0,0,left,1.04209104425,KAA,f,24,59.991427495,Set,2017_12_15_2005,
"[2.7, 2.7]",4,0,5,5,9,,,,,1,0,1,0,down,0.508763210935,KAA,f,24,59.991427495,Set,2017_12_15_2005,
"[2.7, 2.7]",4,0,5,5,9,,,,,2,0,2,0,left,0.608785395278,KAA,f,24,59.991427495,Set,2017_12_15_2005,
"[2.7, 2.7]",4,0,5,5,9,,,,,3,0,3,0,left,0.458782908448,KAA,f,24,59.991427495,Set,2017_12_15_2005,
"[2.7, 2.7]",4,0,5,5,9,,,,,4,0,4,0,right,0.542109202244,KAA,f,24,59.991427495,Set,2017_12_15_2005,
"[2.7, 2.7]",4,0,5,5,9,,,,,5,0,5,0,down,0.842131544487,KAA,f,24,59.991427495,Set,2017_12_15_2005,
"[2.7, 2.7]",4,0,5,5,9,,,,,6,0,6,0,left,0.508795974281,KAA,f,24,59.991427495,Set,2017_12_15_2005,
"[2.7, 2.7]",4,0,5,5,9,,,,,7,0,7,0,down,0.592313716654,KAA,f,24,59.991427495,Set,2017_12_15_2005,
"[2.7, 2.7]",4,0,5,5,9,,,,,8,0,8,0,down,0.6669419315,KAA,f,24,59.991427495,Set,2017_12_15_2005,
"[2.7, 2.7]",2,0,6,6,7,,,,,0,0,0,0,down,0.658793329523,KAA,f,24,59.991427495,Set,2017_12_15_2005,
"[2.7, 2.7]",2,0,6,6,7,,,,,1,0,1,0,down,0.625487206911,KAA,f,24,59.991427495,Set,2017_12_15_2005,
"[2.7, 2.7]",2,0,6,6,7,,,,,2,0,2,0,left,1.09217121577,KAA,f,24,59.991427495,Set,2017_12_15_2005,
"[2.7, 2.7]",2,0,6,6,7,,,,,3,0,3,0,down,1.27546127251,KAA,f,24,59.991427495,Set,2017_12_15_2005,
"[2.7, 2.7]",2,0,6,6,7,,,,,4,0,4,0,down,0.458777382068,KAA,f,24,59.991427495,Set,2017_12_15_2005,
"[2.6, 2.6]",2,0,7,7,1,,,,,0,0,0,0,down,0.500230922451,KAA,f,24,59.991427495,Set,2017_12_15_2005,
"[2.6, 2.6]",2,0,7,7,1,,,,,1,0,1,0,down,0.492119031231,KAA,f,24,59.991427495,Set,2017_12_15_2005,
"[3.0, 3.0]",3,0,8,8,26,,,,,0,0,0,0,down,0.775571799517,KAA,f,24,59.991427495,Set,2017_12_15_2005,
"[3.0, 3.0]",3,0,8,8,26,,,,,1,0,1,0,down,0.508796763781,KAA,f,24,59.991427495,Set,2017_12_15_2005,
"[3.0, 3.0]",3,0,8,8,26,,,,,2,0,2,0,left,0.558841408754,KAA,f,24,59.991427495,Set,2017_12_15_2005,
"[3.0, 3.0]",3,0,8,8,26,,,,,3,0,3,0,down,0.892113425973,KAA,f,24,59.991427495,Set,2017_12_15_2005,
"[3.0, 3.0]",3,0,8,8,26,,,,,4,0,4,0,down,0.592136478721,KAA,f,24,59.991427495,Set,2017_12_15_2005,
"[2.8, 2.8]",2,0,9,9,13,,,,,0,0,0,0,down,0.575483220018,KAA,f,24,59.991427495,Set,2017_12_15_2005,
"[2.8, 2.8]",2,0,9,9,13,,,,,1,0,1,0,left,0.358802961186,KAA,f,24,59.991427495,Set,2017_12_15_2005,
"[2.8, 2.8]",2,0,9,9,13,,,,,2,0,2,0,down,0.308794632176,KAA,f,24,59.991427495,Set,2017_12_15_2005,
"[2.8, 2.8]",2,0,9,9,13,,,,,3,0,3,0,down,0.575464272522,KAA,f,24,59.991427495,Set,2017_12_15_2005,
"[2.8, 2.8]",2,0,9,9,13,,,,,4,0,4,0,left,0.333536887192,KAA,f,24,59.991427495,Set,2017_12_15_2005,
"[2.8, 2.8]",2,0,9,9,13,,,,,5,0,5,0,left,0.608794079541,KAA,f,24,59.991427495,Set,2017_12_15_2005,
"[2.8, 2.8]",2,0,9,9,13,,,,,6,0,6,0,down,1.40876707938,KAA,f,24,59.991427495,Set,2017_12_15_2005,
"[2.8, 2.8]",2,0,9,9,13,,,,,7,0,7,0,down,0.658772013645,KAA,f,24,59.991427495,Set,2017_12_15_2005,
"[2.9, 2.9]",6,0,10,10,23,,,,,0,0,0,0,left,0.466888483788,KAA,f,24,59.991427495,Set,2017_12_15_2005,
"[2.9, 2.9]",6,0,10,10,23,,,,,1,0,1,0,left,0.308801737498,KAA,f,24,59.991427495,Set,2017_12_15_2005,
"[2.9, 2.9]",6,0,10,10,23,,,,,2,0,2,0,left,0.325452232995,KAA,f,24,59.991427495,Set,2017_12_15_2005,
"[2.9, 2.9]",6,0,10,10,23,,,,,3,0,3,0,left,0.425446785608,KAA,f,24,59.991427495,Set,2017_12_15_2005,
"[2.9, 2.9]",6,0,10,10,23,,,,,4,0,4,0,left,0.242112912791,KAA,f,24,59.991427495,Set,2017_12_15_2005,
"[2.9, 2.9]",6,0,10,10,23,,,,,5,0,5,0,left,0.242157913046,KAA,f,24,59.991427495,Set,2017_12_15_2005,
"[2.9, 2.9]",6,0,10,10,23,,,,,6,0,6,0,down,0.508688605216,KAA,f,24,59.991427495,Set,2017_12_15_2005,
"[2.9, 2.9]",6,0,10,10,23,,,,,7,0,7,0,down,0.342079438909,KAA,f,24,59.991427495,Set,2017_12_15_2005,
"[2.9, 2.9]",2,0,11,11,19,,,,,0,0,0,0,down,1.34211496543,KAA,f,24,59.991427495,Set,2017_12_15_2005,
"[2.9, 2.9]",2,0,11,11,19,,,,,1,0,1,0,down,0.308782790002,KAA,f,24,59.991427495,Set,2017_12_15_2005,
"[2.7, 2.7]",6,0,12,12,11,,,,,0,0,0,0,down,0.625464706769,KAA,f,24,59.991427495,Set,2017_12_15_2005,
"[2.7, 2.7]",6,0,12,12,11,,,,,1,0,1,0,down,0.42546770678,KAA,f,24,59.991427495,Set,2017_12_15_2005,
"[2.9, 2.9]",3,0,13,13,20,,,,,0,0,0,0,down,1.16689574701,KAA,f,24,59.991427495,Set,2017_12_15_2005,
"[2.9, 2.9]",3,0,13,13,20,,,,,1,0,1,0,left,0.34211338649,KAA,f,24,59.991427495,Set,2017_12_15_2005,
"[2.9, 2.9]",3,0,13,13,20,,,,,2,0,2,0,down,0.650242488307,KAA,f,24,59.991427495,Set,2017_12_15_2005,
"[2.9, 2.9]",3,0,13,13,20,,,,,3,0,3,0,left,0.492116662819,KAA,f,24,59.991427495,Set,2017_12_15_2005,
"[2.9, 2.9]",3,0,13,13,20,,,,,4,0,4,0,down,0.242121597053,KAA,f,24,59.991427495,Set,2017_12_15_2005,
"[2.9, 2.9]",3,0,13,13,20,,,,,5,0,5,0,left,0.408819974429,KAA,f,24,59.991427495,Set,2017_12_15_2005,
"[2.9, 2.9]",3,0,13,13,20,,,,,6,0,6,0,left,0.258812355984,KAA,f,24,59.991427495,Set,2017_12_15_2005,
"[2.9, 2.9]",3,0,13,13,20,,,,,7,0,7,0,down,0.742113307526,KAA,f,24,59.991427495,Set,2017_12_15_2005,
"[2.9, 2.9]",3,0,13,13,20,,,,,8,0,8,0,left,0.308787526883,KAA,f,24,59.991427495,Set,2017_12_15_2005,
"[2.9, 2.9]",3,0,13,13,20,,,,,9,0,9,0,down,0.700255948905,KAA,f,24,59.991427495,Set,2017_12_15_2005,
"[2.9, 2.9]",3,0,13,13,20,,,,,10,0,10,0,down,0.475455509353,KAA,f,24,59.991427495,Set,2017_12_15_2005,
"[2.6, 2.6]",4,0,14,14,3,,,,,0,0,0,0,left,0.458897382778,KAA,f,24,59.991427495,Set,2017_12_15_2005,
"[2.6, 2.6]",4,0,14,14,3,,,,,1,0,1,0,left,0.508776237315,KAA,f,24,59.991427495,Set,2017_12_15_2005,
"[2.6, 2.6]",4,0,14,14,3,,,,,2,0,2,0,down,0.642174413137,KAA,f,24,59.991427495,Set,2017_12_15_2005,
"[2.6, 2.6]",4,0,14,14,3,,,,,3,0,3,0,down,0.408791947935,KAA,f,24,59.991427495,Set,2017_12_15_2005,
"[3.0, 3.0]",6,0,15,15,29,,,,,0,0,0,0,left,0.46691019446,KAA,f,24,59.991427495,Set,2017_12_15_2005,
"[3.0, 3.0]",6,0,15,15,29,,,,,1,0,1,0,left,0.258784724225,KAA,f,24,59.991427495,Set,2017_12_15_2005,
"[3.0, 3.0]",6,0,15,15,29,,,,,2,0,2,0,left,0.375441614509,KAA,f,24,59.991427495,Set,2017_12_15_2005,
"[3.0, 3.0]",6,0,15,15,29,,,,,3,0,3,0,left,0.266767140944,KAA,f,24,59.991427495,Set,2017_12_15_2005,
"[3.0, 3.0]",6,0,15,15,29,,,,,4,0,4,0,left,0.258630381169,KAA,f,24,59.991427495,Set,2017_12_15_2005,
"[3.0, 3.0]",6,0,15,15,29,,,,,5,0,5,0,left,0.35878559266,KAA,f,24,59.991427495,Set,2017_12_15_2005,
"[3.0, 3.0]",6,0,15,15,29,,,,,6,0,6,0,left,0.375448719802,KAA,f,24,59.991427495,Set,2017_12_15_2005,
"[3.0, 3.0]",6,0,15,15,29,,,,,7,0,7,0,down,0.358764276752,KAA,f,24,59.991427495,Set,2017_12_15_2005,
"[3.0, 3.0]",6,0,15,15,29,,,,,8,0,8,0,down,0.192148005124,KAA,f,24,59.991427495,Set,2017_12_15_2005,
"[3.0, 3.0]",6,0,15,15,29,,,,,9,0,9,0,left,0.458790013712,KAA,f,24,59.991427495,Set,2017_12_15_2005,
"[3.0, 3.0]",6,0,15,15,29,,,,,10,0,10,0,down,0.516903523385,KAA,f,24,59.991427495,Set,2017_12_15_2005,
"[3.0, 3.0]",6,0,15,15,29,,,,,11,0,11,0,left,0.458863435226,KAA,f,24,59.991427495,Set,2017_12_15_2005,
"[3.0, 3.0]",6,0,15,15,29,,,,,12,0,12,0,down,0.32543565394,KAA,f,24,59.991427495,Set,2017_12_15_2005,
"[3.0, 3.0]",6,0,15,15,29,,,,,13,0,13,0,down,0.22546912785,KAA,f,24,59.991427495,Set,2017_12_15_2005,
"[3.0, 3.0]",6,0,15,15,29,,,,,14,0,14,0,left,0.442120175983,KAA,f,24,59.991427495,Set,2017_12_15_2005,
"[3.0, 3.0]",6,0,15,15,29,,,,,15,0,15,0,down,0.442148991948,KAA,f,24,59.991427495,Set,2017_12_15_2005,
"[3.0, 3.0]",6,0,15,15,29,,,,,16,0,16,0,down,0.542103675893,KAA,f,24,59.991427495,Set,2017_12_15_2005,
"[2.9, 2.9]",1,0,16,16,18,,,,,0,0,0,0,down,0.733537597727,KAA,f,24,59.991427495,Set,2017_12_15_2005,
"[2.9, 2.9]",1,0,16,16,18,,,,,1,0,1,0,left,0.275466404128,KAA,f,24,59.991427495,Set,2017_12_15_2005,
"[2.9, 2.9]",1,0,16,16,18,,,,,2,0,2,0,down,0.392121320736,KAA,f,24,59.991427495,Set,2017_12_15_2005,
"[2.9, 2.9]",1,0,16,16,18,,,,,3,0,3,0,left,0.308760684595,KAA,f,24,59.991427495,Set,2017_12_15_2005,
"[2.9, 2.9]",1,0,16,16,18,,,,,4,0,4,0,down,0.392096846888,KAA,f,24,59.991427495,Set,2017_12_15_2005,
"[2.9, 2.9]",1,0,16,16,18,,,,,5,0,5,0,left,0.425457838282,KAA,f,24,59.991427495,Set,2017_12_15_2005,
"[2.9, 2.9]",1,0,16,16,18,,,,,6,0,6,0,down,0.442132807628,KAA,f,24,59.991427495,Set,2017_12_15_2005,
"[2.9, 2.9]",1,0,16,16,18,,,,,7,0,7,0,left,0.775460088335,KAA,f,24,59.991427495,Set,2017_12_15_2005,
"[2.9, 2.9]",1,0,16,16,18,,,,,8,0,8,0,left,0.400256106805,KAA,f,24,59.991427495,Set,2017_12_15_2005,
"[2.9, 2.9]",1,0,16,16,18,,,,,9,0,9,0,left,0.258817487571,KAA,f,24,59.991427495,Set,2017_12_15_2005,
"[2.9, 2.9]",1,0,16,16,18,,,,,10,0,10,0,left,0.258803276956,KAA,f,24,59.991427495,Set,2017_12_15_2005,
"[2.9, 2.9]",1,0,16,16,18,,,,,11,0,11,0,down,0.342120886518,KAA,f,24,59.991427495,Set,2017_12_15_2005,
"[2.9, 2.9]",1,0,16,16,18,,,,,12,0,12,0,left,0.875458983035,KAA,f,24,59.991427495,Set,2017_12_15_2005,
"[2.9, 2.9]",1,0,16,16,18,,,,,13,0,13,0,down,0.583574979537,KAA,f,24,59.991427495,Set,2017_12_15_2005,
"[2.9, 2.9]",1,0,16,16,18,,,,,14,0,14,0,left,0.57544414085,KAA,f,24,59.991427495,Set,2017_12_15_2005,
"[2.9, 2.9]",1,0,16,16,18,,,,,15,0,15,0,down,0.408790368994,KAA,f,24,59.991427495,Set,2017_12_15_2005,
"[2.9, 2.9]",1,0,16,16,18,,,,,16,0,16,0,down,0.325456180406,KAA,f,24,59.991427495,Set,2017_12_15_2005,
"[2.9, 2.9]",1,0,16,16,18,,,,,17,0,17,0,left,0.525442917162,KAA,f,24,59.991427495,Set,2017_12_15_2005,
"[2.9, 2.9]",1,0,16,16,18,,,,,18,0,18,0,down,0.358784803189,KAA,f,24,59.991427495,Set,2017_12_15_2005,
"[2.9, 2.9]",1,0,16,16,18,,,,,19,0,19,0,down,0.375439246069,KAA,f,24,59.991427495,Set,2017_12_15_2005,
"[2.8, 2.8]",3,0,17,17,14,,,,,0,0,0,0,left,0.716902102315,KAA,f,24,59.991427495,Set,2017_12_15_2005,
"[2.8, 2.8]",3,0,17,17,14,,,,,1,0,1,0,down,0.325448680349,KAA,f,24,59.991427495,Set,2017_12_15_2005,
"[2.8, 2.8]",3,0,17,17,14,,,,,2,0,2,0,down,0.342152860423,KAA,f,24,59.991427495,Set,2017_12_15_2005,
"[2.6, 2.6]",3,0,18,18,2,,,,,0,0,0,0,down,0.600251922588,KAA,f,24,59.991427495,Set,2017_12_15_2005,
"[2.6, 2.6]",3,0,18,18,2,,,,,1,0,1,0,down,0.5087920269,KAA,f,24,59.991427495,Set,2017_12_15_2005,
"[2.6, 2.6]",3,0,18,18,2,,,,,2,0,2,0,left,0.325417495944,KAA,f,24,59.991427495,Set,2017_12_15_2005,
"[2.6, 2.6]",3,0,18,18,2,,,,,3,0,3,0,down,0.358816777065,KAA,f,24,59.991427495,Set,2017_12_15_2005,
"[2.6, 2.6]",3,0,18,18,2,,,,,4,0,4,0,down,0.308822263934,KAA,f,24,59.991427495,Set,2017_12_15_2005,
"[2.8, 2.8]",6,0,19,19,17,,,,,0,0,0,0,left,0.48356937425,KAA,f,24,59.991427495,Set,2017_12_15_2005,
"[2.8, 2.8]",6,0,19,19,17,,,,,1,0,1,0,down,0.542114333832,KAA,f,24,59.991427495,Set,2017_12_15_2005,
"[2.8, 2.8]",6,0,19,19,17,,,,,2,0,2,0,left,0.458765934629,KAA,f,24,59.991427495,Set,2017_12_15_2005,
"[2.8, 2.8]",6,0,19,19,17,,,,,3,0,3,0,right,0.592142005073,KAA,f,24,59.991427495,Set,2017_12_15_2005,
"[2.8, 2.8]",6,0,19,19,17,,,,,4,0,4,0,left,0.342159965716,KAA,f,24,59.991427495,Set,2017_12_15_2005,
"[2.8, 2.8]",6,0,19,19,17,,,,,5,0,5,0,down,0.542098544276,KAA,f,24,59.991427495,Set,2017_12_15_2005,
"[2.8, 2.8]",6,0,19,19,17,,,,,6,0,6,0,down,0.558808250673,KAA,f,24,59.991427495,Set,2017_12_15_2005,
"[2.8, 2.8]",6,0,19,19,17,,,,,7,0,7,0,left,0.442130439216,KAA,f,24,59.991427495,Set,2017_12_15_2005,
"[2.8, 2.8]",6,0,19,19,17,,,,,8,0,8,0,down,0.675435140787,KAA,f,24,59.991427495,Set,2017_12_15_2005,
"[2.8, 2.8]",6,0,19,19,17,,,,,9,0,9,0,down,0.542130518152,KAA,f,24,59.991427495,Set,2017_12_15_2005,
"[2.6, 2.6]",5,0,20,20,4,,,,,0,0,0,0,left,0.641963227681,KAA,f,24,59.991427495,Set,2017_12_15_2005,
"[2.6, 2.6]",5,0,20,20,4,,,,,1,0,1,0,down,0.475466956763,KAA,f,24,59.991427495,Set,2017_12_15_2005,
"[2.6, 2.6]",5,0,20,20,4,,,,,2,0,2,0,left,0.242130281316,KAA,f,24,59.991427495,Set,2017_12_15_2005,
"[2.6, 2.6]",5,0,20,20,4,,,,,3,0,3,0,down,0.542113544361,KAA,f,24,59.991427495,Set,2017_12_15_2005,
"[2.6, 2.6]",5,0,20,20,4,,,,,4,0,4,0,down,0.508799132222,KAA,f,24,59.991427495,Set,2017_12_15_2005,
"[2.6, 2.6]",5,0,20,20,4,,,,,5,0,5,0,left,0.3587879611,KAA,f,24,59.991427495,Set,2017_12_15_2005,
"[2.6, 2.6]",5,0,20,20,4,,,,,6,0,6,0,left,0.225509785989,KAA,f,24,59.991427495,Set,2017_12_15_2005,
"[2.6, 2.6]",5,0,20,20,4,,,,,7,0,7,0,down,0.375462140946,KAA,f,24,59.991427495,Set,2017_12_15_2005,
"[2.6, 2.6]",5,0,20,20,4,,,,,8,0,8,0,left,0.258782355784,KAA,f,24,59.991427495,Set,2017_12_15_2005,
"[2.6, 2.6]",5,0,20,20,4,,,,,9,0,9,0,down,0.325462101493,KAA,f,24,59.991427495,Set,2017_12_15_2005,
"[2.6, 2.6]",5,0,20,20,4,,,,,10,0,10,0,left,0.358779276838,KAA,f,24,59.991427495,Set,2017_12_15_2005,
"[2.6, 2.6]",5,0,20,20,4,,,,,11,0,11,0,left,0.392108294356,KAA,f,24,59.991427495,Set,2017_12_15_2005,
"[2.6, 2.6]",5,0,20,20,4,,,,,12,0,12,0,left,0.175458035665,KAA,f,24,59.991427495,Set,2017_12_15_2005,
"[2.6, 2.6]",5,0,20,20,4,,,,,13,0,13,0,left,1.00876044776,KAA,f,24,59.991427495,Set,2017_12_15_2005,
"[2.6, 2.6]",5,0,20,20,4,,,,,14,0,14,0,left,0.258791040076,KAA,f,24,59.991427495,Set,2017_12_15_2005,
"[2.6, 2.6]",5,0,20,20,4,,,,,15,0,15,0,left,0.325454206701,KAA,f,24,59.991427495,Set,2017_12_15_2005,
"[2.6, 2.6]",5,0,20,20,4,,,,,16,0,16,0,right,0.358806908567,KAA,f,24,59.991427495,Set,2017_12_15_2005,
"[2.6, 2.6]",5,0,20,20,4,,,,,17,0,17,0,left,0.325477891049,KAA,f,24,59.991427495,Set,2017_12_15_2005,
"[2.6, 2.6]",5,0,20,20,4,,,,,18,0,18,0,down,0.508809790161,KAA,f,24,59.991427495,Set,2017_12_15_2005,
"[2.6, 2.6]",5,0,20,20,4,,,,,19,0,19,0,left,0.408775368909,KAA,f,24,59.991427495,Set,2017_12_15_2005,
"[2.6, 2.6]",5,0,20,20,4,,,,,20,0,20,0,left,0.392075136246,KAA,f,24,59.991427495,Set,2017_12_15_2005,
"[2.6, 2.6]",5,0,20,20,4,,,,,21,0,21,0,down,0.342111412756,KAA,f,24,59.991427495,Set,2017_12_15_2005,
"[2.6, 2.6]",5,0,20,20,4,,,,,22,0,22,0,down,0.258748802938,KAA,f,24,59.991427495,Set,2017_12_15_2005,
"[2.8, 2.8]",1,0,21,21,12,,,,,0,0,0,0,down,1.49215337355,KAA,f,24,59.991427495,Set,2017_12_15_2005,
"[2.8, 2.8]",1,0,21,21,12,,,,,1,0,1,0,left,0.192118004925,KAA,f,24,59.991427495,Set,2017_12_15_2005,
"[2.8, 2.8]",1,0,21,21,12,,,,,2,0,2,0,down,0.542122623359,KAA,f,24,59.991427495,Set,2017_12_15_2005,
"[2.8, 2.8]",1,0,21,21,12,,,,,3,0,3,0,left,0.492083504709,KAA,f,24,59.991427495,Set,2017_12_15_2005,
"[2.8, 2.8]",1,0,21,21,12,,,,,4,0,4,0,right,0.475441693474,KAA,f,24,59.991427495,Set,2017_12_15_2005,
"[2.8, 2.8]",1,0,21,21,12,,,,,5,0,5,0,right,0.258838408772,KAA,f,24,59.991427495,Set,2017_12_15_2005,
"[2.8, 2.8]",1,0,21,21,12,,,,,6,0,6,0,left,0.258794592693,KAA,f,24,59.991427495,Set,2017_12_15_2005,
"[2.8, 2.8]",1,0,21,21,12,,,,,7,0,7,0,left,0.275487325329,KAA,f,24,59.991427495,Set,2017_12_15_2005,
"[2.8, 2.8]",1,0,21,21,12,,,,,8,0,8,0,left,0.208847448288,KAA,f,24,59.991427495,Set,2017_12_15_2005,
"[2.8, 2.8]",1,0,21,21,12,,,,,9,0,9,0,down,0.35881401386,KAA,f,24,59.991427495,Set,2017_12_15_2005,
"[2.8, 2.8]",1,0,21,21,12,,,,,10,0,10,0,left,0.608810263861,KAA,f,24,59.991427495,Set,2017_12_15_2005,
"[2.8, 2.8]",1,0,21,21,12,,,,,11,0,11,0,down,0.425447180314,KAA,f,24,59.991427495,Set,2017_12_15_2005,
"[2.8, 2.8]",1,0,21,21,12,,,,,12,0,12,0,right,0.658794908493,KAA,f,24,59.991427495,Set,2017_12_15_2005,
"[2.8, 2.8]",1,0,21,21,12,,,,,13,0,13,0,down,0.292075452046,KAA,f,24,59.991427495,Set,2017_12_15_2005,
"[2.8, 2.8]",1,0,21,21,12,,,,,14,0,14,0,down,0.242135807668,KAA,f,24,59.991427495,Set,2017_12_15_2005,
"[3.0, 3.0]",2,0,22,22,25,,,,,0,0,0,0,down,0.725473469967,KAA,f,24,59.991427495,Set,2017_12_15_2005,
"[3.0, 3.0]",2,0,22,22,25,,,,,1,0,1,0,left,0.292120452301,KAA,f,24,59.991427495,Set,2017_12_15_2005,
"[3.0, 3.0]",2,0,22,22,25,,,,,2,0,2,0,down,0.242072649387,KAA,f,24,59.991427495,Set,2017_12_15_2005,
"[3.0, 3.0]",2,0,22,22,25,,,,,3,0,3,0,left,0.358806908567,KAA,f,24,59.991427495,Set,2017_12_15_2005,
"[3.0, 3.0]",2,0,22,22,25,,,,,4,0,4,0,down,0.325475917372,KAA,f,24,59.991427495,Set,2017_12_15_2005,
"[3.0, 3.0]",2,0,22,22,25,,,,,5,0,5,0,left,0.192121162836,KAA,f,24,59.991427495,Set,2017_12_15_2005,
"[3.0, 3.0]",2,0,22,22,25,,,,,6,0,6,0,down,0.275455351453,KAA,f,24,59.991427495,Set,2017_12_15_2005,
"[3.0, 3.0]",2,0,22,22,25,,,,,7,0,7,0,down,0.292157557793,KAA,f,24,59.991427495,Set,2017_12_15_2005,
"[2.7, 2.7]",5,0,23,23,10,,,,,0,0,0,0,down,0.592136083986,KAA,f,24,59.991427495,Set,2017_12_15_2005,
"[2.7, 2.7]",5,0,23,23,10,,,,,1,0,1,0,down,0.658808329608,KAA,f,24,59.991427495,Set,2017_12_15_2005,
"[2.8, 2.8]",5,0,24,24,16,,,,,0,0,0,0,down,0.558796408499,KAA,f,24,59.991427495,Set,2017_12_15_2005,
"[2.8, 2.8]",5,0,24,24,16,,,,,1,0,1,0,down,0.658790961112,KAA,f,24,59.991427495,Set,2017_12_15_2005,
"[2.8, 2.8]",5,0,24,24,16,,,,,2,0,2,0,left,0.908798263787,KAA,f,24,59.991427495,Set,2017_12_15_2005,
"[2.8, 2.8]",5,0,24,24,16,,,,,3,0,3,0,down,0.275449430337,KAA,f,24,59.991427495,Set,2017_12_15_2005,
"[2.8, 2.8]",5,0,24,24,16,,,,,4,0,4,0,down,0.25878511896,KAA,f,24,59.991427495,Set,2017_12_15_2005,
"[2.9, 2.9]",5,0,25,25,22,,,,,0,0,0,0,left,0.425457838312,KAA,f,24,59.991427495,Set,2017_12_15_2005,
"[2.9, 2.9]",5,0,25,25,22,,,,,1,0,1,0,left,0.375457404065,KAA,f,24,59.991427495,Set,2017_12_15_2005,
"[2.9, 2.9]",5,0,25,25,22,,,,,2,0,2,0,down,0.758794987458,KAA,f,24,59.991427495,Set,2017_12_15_2005,
"[2.9, 2.9]",5,0,25,25,22,,,,,3,0,3,0,down,0.258778408403,KAA,f,24,59.991427495,Set,2017_12_15_2005,
"[2.9, 2.9]",5,0,25,25,22,,,,,4,0,4,0,left,0.442076754669,KAA,f,24,59.991427495,Set,2017_12_15_2005,
"[2.9, 2.9]",5,0,25,25,22,,,,,5,0,5,0,down,0.316867838934,KAA,f,24,59.991427495,Set,2017_12_15_2005,
"[2.9, 2.9]",5,0,25,25,22,,,,,6,0,6,0,left,0.642125860235,KAA,f,24,59.991427495,Set,2017_12_15_2005,
"[2.9, 2.9]",5,0,25,25,22,,,,,7,0,7,0,left,0.692119189131,KAA,f,24,59.991427495,Set,2017_12_15_2005,
"[2.9, 2.9]",5,0,25,25,22,,,,,8,0,8,0,left,0.742131860286,KAA,f,24,59.991427495,Set,2017_12_15_2005,
"[2.9, 2.9]",5,0,25,25,22,,,,,9,0,9,0,down,0.358795855864,KAA,f,24,59.991427495,Set,2017_12_15_2005,
"[2.9, 2.9]",5,0,25,25,22,,,,,10,0,10,0,down,0.325453811965,KAA,f,24,59.991427495,Set,2017_12_15_2005,
"[2.8, 2.8]",4,0,26,26,15,,,,,0,0,0,0,left,0.300214185496,KAA,f,24,59.991427495,Set,2017_12_15_2005,
"[2.8, 2.8]",4,0,26,26,15,,,,,1,0,1,0,left,0.242125149729,KAA,f,24,59.991427495,Set,2017_12_15_2005,
"[2.8, 2.8]",4,0,26,26,15,,,,,2,0,2,0,left,0.1921215576,KAA,f,24,59.991427495,Set,2017_12_15_2005,
"[2.8, 2.8]",4,0,26,26,15,,,,,3,0,3,0,left,0.22546360147,KAA,f,24,59.991427495,Set,2017_12_15_2005,
"[2.8, 2.8]",4,0,26,26,15,,,,,4,0,4,0,down,0.475457877765,KAA,f,24,59.991427495,Set,2017_12_15_2005,
"[2.8, 2.8]",4,0,26,26,15,,,,,5,0,5,0,down,0.792124794418,KAA,f,24,59.991427495,Set,2017_12_15_2005,
"[2.8, 2.8]",4,0,26,26,15,,,,,6,0,6,0,left,0.208784290007,KAA,f,24,59.991427495,Set,2017_12_15_2005,
"[2.8, 2.8]",4,0,26,26,15,,,,,7,0,7,0,left,0.15878622423,KAA,f,24,59.991427495,Set,2017_12_15_2005,
"[2.8, 2.8]",4,0,26,26,15,,,,,8,0,8,0,left,0.542069333576,KAA,f,24,59.991427495,Set,2017_12_15_2005,
"[2.8, 2.8]",4,0,26,26,15,,,,,9,0,9,0,left,0.608805132244,KAA,f,24,59.991427495,Set,2017_12_15_2005,
"[2.8, 2.8]",4,0,26,26,15,,,,,10,0,10,0,down,0.275430482841,KAA,f,24,59.991427495,Set,2017_12_15_2005,
"[2.8, 2.8]",4,0,26,26,15,,,,,11,0,11,0,left,0.358792303217,KAA,f,24,59.991427495,Set,2017_12_15_2005,
"[2.8, 2.8]",4,0,26,26,15,,,,,12,0,12,0,down,0.99210363641,KAA,f,24,59.991427495,Set,2017_12_15_2005,
"[2.8, 2.8]",4,0,26,26,15,,,,,13,0,13,0,down,0.658788592671,KAA,f,24,59.991427495,Set,2017_12_15_2005,
"[3.0, 3.0]",4,0,27,27,27,,,,,0,0,0,0,down,0.858762303047,KAA,f,24,59.991427495,Set,2017_12_15_2005,
"[3.0, 3.0]",4,0,27,27,27,,,,,1,0,1,0,down,0.358778882102,KAA,f,24,59.991427495,Set,2017_12_15_2005,
"[2.7, 2.7]",1,0,28,28,6,,,,,0,0,0,0,down,0.525495022739,KAA,f,24,59.991427495,Set,2017_12_15_2005,
"[2.7, 2.7]",1,0,28,28,6,,,,,1,0,1,0,left,0.242126728641,KAA,f,24,59.991427495,Set,2017_12_15_2005,
"[2.7, 2.7]",1,0,28,28,6,,,,,2,0,2,0,left,0.192143662978,KAA,f,24,59.991427495,Set,2017_12_15_2005,
"[2.7, 2.7]",1,0,28,28,6,,,,,3,0,3,0,down,0.508811369131,KAA,f,24,59.991427495,Set,2017_12_15_2005,
"[2.7, 2.7]",1,0,28,28,6,,,,,4,0,4,0,down,0.358789540041,KAA,f,24,59.991427495,Set,2017_12_15_2005,
"[2.7, 2.7]",1,0,28,28,6,,,,,5,0,5,0,left,0.275464035716,KAA,f,24,59.991427495,Set,2017_12_15_2005,
"[2.7, 2.7]",1,0,28,28,6,,,,,6,0,6,0,down,0.375257271313,KAA,f,24,59.991427495,Set,2017_12_15_2005,
"[2.7, 2.7]",1,0,28,28,6,,,,,7,0,7,0,left,0.542128939211,KAA,f,24,59.991427495,Set,2017_12_15_2005,
"[2.7, 2.7]",1,0,28,28,6,,,,,8,0,8,0,left,0.375434114452,KAA,f,24,59.991427495,Set,2017_12_15_2005,
"[2.7, 2.7]",1,0,28,28,6,,,,,9,0,9,0,down,0.625442996097,KAA,f,24,59.991427495,Set,2017_12_15_2005,
"[2.7, 2.7]",1,0,28,28,6,,,,,10,0,10,0,left,1.4921415314,KAA,f,24,59.991427495,Set,2017_12_15_2005,
"[2.7, 2.7]",1,0,28,28,6,,,,,11,0,11,0,down,0.425456654077,KAA,f,24,59.991427495,Set,2017_12_15_2005,
"[2.7, 2.7]",1,0,28,28,6,,,,,12,0,12,0,down,0.525472917361,KAA,f,24,59.991427495,Set,2017_12_15_2005,
"[2.7, 2.7]",1,0,28,28,6,,,,,13,0,13,0,left,0.425483101601,KAA,f,24,59.991427495,Set,2017_12_15_2005,
"[2.7, 2.7]",1,0,28,28,6,,,,,14,0,14,0,left,0.258783934754,KAA,f,24,59.991427495,Set,2017_12_15_2005,
"[2.7, 2.7]",1,0,28,28,6,,,,,15,0,15,0,down,0.408782868937,KAA,f,24,59.991427495,Set,2017_12_15_2005,
"[2.7, 2.7]",1,0,28,28,6,,,,,16,0,16,0,left,0.242119228613,KAA,f,24,59.991427495,Set,2017_12_15_2005,
"[2.7, 2.7]",1,0,28,28,6,,,,,17,0,17,0,down,0.708813105972,KAA,f,24,59.991427495,Set,2017_12_15_2005,
"[2.7, 2.7]",1,0,28,28,6,,,,,18,0,18,0,left,0.375444377714,KAA,f,24,59.991427495,Set,2017_12_15_2005,
"[2.7, 2.7]",1,0,28,28,6,,,,,19,0,19,0,left,0.425474812102,KAA,f,24,59.991427495,Set,2017_12_15_2005,
"[2.7, 2.7]",1,0,28,28,6,,,,,20,0,20,0,down,0.366869062622,KAA,f,24,59.991427495,Set,2017_12_15_2005,
"[2.7, 2.7]",1,0,28,28,6,,,,,21,0,21,0,down,0.492106004851,KAA,f,24,59.991427495,Set,2017_12_15_2005,
"[3.0, 3.0]",1,0,29,29,24,,,,,0,0,0,0,down,0.525461075158,KAA,f,24,59.991427495,Set,2017_12_15_2005,
"[3.0, 3.0]",1,0,29,29,24,,,,,1,0,1,0,left,0.375464509387,KAA,f,24,59.991427495,Set,2017_12_15_2005,
"[3.0, 3.0]",1,0,29,29,24,,,,,2,0,2,0,down,0.392112636473,KAA,f,24,59.991427495,Set,2017_12_15_2005,
"[3.0, 3.0]",1,0,29,29,24,,,,,3,0,3,0,down,0.242159886751,KAA,f,24,59.991427495,Set,2017_12_15_2005,
