size,n,trials_2.thisRepN,trials_2.thisTrialN,trials_2.thisN,trials_2.thisIndex,trials.thisRepN,trials.thisTrialN,trials.thisN,trials.thisIndex,trials_3.thisRepN,trials_3.thisTrialN,trials_3.thisN,trials_3.thisIndex,answer.keys,answer.rt,participant,gender,age,frameRate,expName,date,
"[2.6, 2.6]",4,0,0,0,3,,,,,0,0,0,0,down,7.90869918422,LPL,f,22,60.0032212475,Set,2017_12_15_1602,
"[2.6, 2.6]",4,0,0,0,3,,,,,1,0,1,0,down,2.02544133819,LPL,f,22,60.0032212475,Set,2017_12_15_1602,
"[2.7, 2.7]",5,0,1,1,10,,,,,0,0,0,0,right,0.733565229486,LPL,f,22,60.0032212475,Set,2017_12_15_1602,
"[2.7, 2.7]",5,0,1,1,10,,,,,1,0,1,0,down,1.04211709704,LPL,f,22,60.0032212475,Set,2017_12_15_1602,
"[2.7, 2.7]",5,0,1,1,10,,,,,2,0,2,0,right,1.45878448739,LPL,f,22,60.0032212475,Set,2017_12_15_1602,
"[2.7, 2.7]",5,0,1,1,10,,,,,3,0,3,0,down,0.775454561954,LPL,f,22,60.0032212475,Set,2017_12_15_1602,
"[2.7, 2.7]",5,0,1,1,10,,,,,4,0,4,0,down,0.558808250673,LPL,f,22,60.0032212475,Set,2017_12_15_1602,
"[2.9, 2.9]",4,0,2,2,21,,,,,0,0,0,0,right,0.933566571592,LPL,f,22,60.0032212475,Set,2017_12_15_1602,
"[2.9, 2.9]",4,0,2,2,21,,,,,1,0,1,0,right,1.29213071553,LPL,f,22,60.0032212475,Set,2017_12_15_1602,
"[2.9, 2.9]",4,0,2,2,21,,,,,2,0,2,0,right,1.4587090922,LPL,f,22,60.0032212475,Set,2017_12_15_1602,
"[2.9, 2.9]",4,0,2,2,21,,,,,3,0,3,0,right,4.05874153975,LPL,f,22,60.0032212475,Set,2017_12_15_1602,
"[2.9, 2.9]",4,0,2,2,21,,,,,4,0,4,0,right,0.692096689017,LPL,f,22,60.0032212475,Set,2017_12_15_1602,
"[2.9, 2.9]",4,0,2,2,21,,,,,5,0,5,0,right,0.575454798818,LPL,f,22,60.0032212475,Set,2017_12_15_1602,
"[2.9, 2.9]",4,0,2,2,21,,,,,6,0,6,0,right,1.99210995223,LPL,f,22,60.0032212475,Set,2017_12_15_1602,
"[2.9, 2.9]",4,0,2,2,21,,,,,7,0,7,0,right,0.908783263672,LPL,f,22,60.0032212475,Set,2017_12_15_1602,
"[2.9, 2.9]",4,0,2,2,21,,,,,8,0,8,0,down,1.25878235578,LPL,f,22,60.0032212475,Set,2017_12_15_1602,
"[2.9, 2.9]",4,0,2,2,21,,,,,9,0,9,0,down,0.650231830339,LPL,f,22,60.0032212475,Set,2017_12_15_1602,
"[2.9, 2.9]",5,0,3,3,22,,,,,0,0,0,0,left,0.992099689029,LPL,f,22,60.0032212475,Set,2017_12_15_1602,
"[2.9, 2.9]",5,0,3,3,22,,,,,1,0,1,0,left,0.558799171675,LPL,f,22,60.0032212475,Set,2017_12_15_1602,
"[2.9, 2.9]",5,0,3,3,22,,,,,2,0,2,0,left,0.842130360252,LPL,f,22,60.0032212475,Set,2017_12_15_1602,
"[2.9, 2.9]",5,0,3,3,22,,,,,3,0,3,0,down,1.95879317162,LPL,f,22,60.0032212475,Set,2017_12_15_1602,
"[2.9, 2.9]",5,0,3,3,22,,,,,4,0,4,0,down,0.508779395255,LPL,f,22,60.0032212475,Set,2017_12_15_1602,
"[2.8, 2.8]",1,0,4,4,12,,,,,0,0,0,0,down,0.883580347989,LPL,f,22,60.0032212475,Set,2017_12_15_1602,
"[2.8, 2.8]",1,0,4,4,12,,,,,1,0,1,0,down,0.758792224282,LPL,f,22,60.0032212475,Set,2017_12_15_1602,
"[2.9, 2.9]",3,0,5,5,20,,,,,0,0,0,0,left,1.05019938279,LPL,f,22,60.0032212475,Set,2017_12_15_1602,
"[2.9, 2.9]",3,0,5,5,20,,,,,1,0,1,0,down,0.592116741784,LPL,f,22,60.0032212475,Set,2017_12_15_1602,
"[2.9, 2.9]",3,0,5,5,20,,,,,2,0,2,0,down,0.425465733104,LPL,f,22,60.0032212475,Set,2017_12_15_1602,
"[2.9, 2.9]",3,0,5,5,20,,,,,3,0,3,0,right,0.708741658193,LPL,f,22,60.0032212475,Set,2017_12_15_1602,
"[2.9, 2.9]",3,0,5,5,20,,,,,4,0,4,0,down,1.40875523721,LPL,f,22,60.0032212475,Set,2017_12_15_1602,
"[2.9, 2.9]",3,0,5,5,20,,,,,5,0,5,0,down,0.6421254655,LPL,f,22,60.0032212475,Set,2017_12_15_1602,
"[2.9, 2.9]",3,0,5,5,20,,,,,6,0,6,0,left,0.558789697941,LPL,f,22,60.0032212475,Set,2017_12_15_1602,
"[2.9, 2.9]",3,0,5,5,20,,,,,7,0,7,0,down,0.558779434708,LPL,f,22,60.0032212475,Set,2017_12_15_1602,
"[2.9, 2.9]",3,0,5,5,20,,,,,8,0,8,0,down,0.592118320725,LPL,f,22,60.0032212475,Set,2017_12_15_1602,
"[2.8, 2.8]",4,0,6,6,15,,,,,0,0,0,0,down,0.850244619884,LPL,f,22,60.0032212475,Set,2017_12_15_1602,
"[2.8, 2.8]",4,0,6,6,15,,,,,1,0,1,0,down,0.516923260322,LPL,f,22,60.0032212475,Set,2017_12_15_1602,
"[3.0, 3.0]",5,0,7,7,28,,,,,0,0,0,0,right,1.0921301629,LPL,f,22,60.0032212475,Set,2017_12_15_1602,
"[3.0, 3.0]",5,0,7,7,28,,,,,1,0,1,0,down,0.575447693525,LPL,f,22,60.0032212475,Set,2017_12_15_1602,
"[3.0, 3.0]",5,0,7,7,28,,,,,2,0,2,0,down,0.475281429332,LPL,f,22,60.0032212475,Set,2017_12_15_1602,
"[3.0, 3.0]",4,0,8,8,27,,,,,0,0,0,0,left,0.783571190055,LPL,f,22,60.0032212475,Set,2017_12_15_1602,
"[3.0, 3.0]",4,0,8,8,27,,,,,1,0,1,0,down,1.07548124634,LPL,f,22,60.0032212475,Set,2017_12_15_1602,
"[3.0, 3.0]",4,0,8,8,27,,,,,2,0,2,0,down,14.258701829,LPL,f,22,60.0032212475,Set,2017_12_15_1602,
"[3.0, 3.0]",3,0,9,9,26,,,,,0,0,0,0,left,3.25019835646,LPL,f,22,60.0032212475,Set,2017_12_15_1602,
"[3.0, 3.0]",3,0,9,9,26,,,,,1,0,1,0,left,0.542131307651,LPL,f,22,60.0032212475,Set,2017_12_15_1602,
"[3.0, 3.0]",3,0,9,9,26,,,,,2,0,2,0,left,0.392111847003,LPL,f,22,60.0032212475,Set,2017_12_15_1602,
"[3.0, 3.0]",3,0,9,9,26,,,,,3,0,3,0,down,0.633566729462,LPL,f,22,60.0032212475,Set,2017_12_15_1602,
"[3.0, 3.0]",3,0,9,9,26,,,,,4,0,4,0,down,0.325431311823,LPL,f,22,60.0032212475,Set,2017_12_15_1602,
"[2.6, 2.6]",6,0,10,10,5,,,,,0,0,0,0,down,0.692095899547,LPL,f,22,60.0032212475,Set,2017_12_15_1602,
"[2.6, 2.6]",6,0,10,10,5,,,,,1,0,1,0,down,0.392166320991,LPL,f,22,60.0032212475,Set,2017_12_15_1602,
"[2.6, 2.6]",6,0,10,10,5,,,,,2,0,2,0,left,0.808823053405,LPL,f,22,60.0032212475,Set,2017_12_15_1602,
"[2.6, 2.6]",6,0,10,10,5,,,,,3,0,3,0,left,0.892106715386,LPL,f,22,60.0032212475,Set,2017_12_15_1602,
"[2.6, 2.6]",6,0,10,10,5,,,,,4,0,4,0,down,0.942105175898,LPL,f,22,60.0032212475,Set,2017_12_15_1602,
"[2.6, 2.6]",6,0,10,10,5,,,,,5,0,5,0,down,0.275479035772,LPL,f,22,60.0032212475,Set,2017_12_15_1602,
"[2.8, 2.8]",6,0,11,11,17,,,,,0,0,0,0,down,0.775462062011,LPL,f,22,60.0032212475,Set,2017_12_15_1602,
"[2.8, 2.8]",6,0,11,11,17,,,,,1,0,1,0,left,0.475452746148,LPL,f,22,60.0032212475,Set,2017_12_15_1602,
"[2.8, 2.8]",6,0,11,11,17,,,,,2,0,2,0,down,0.392121320736,LPL,f,22,60.0032212475,Set,2017_12_15_1602,
"[2.8, 2.8]",6,0,11,11,17,,,,,3,0,3,0,left,0.658604249445,LPL,f,22,60.0032212475,Set,2017_12_15_1602,
"[2.8, 2.8]",6,0,11,11,17,,,,,4,0,4,0,left,0.358970725356,LPL,f,22,60.0032212475,Set,2017_12_15_1602,
"[2.8, 2.8]",6,0,11,11,17,,,,,5,0,5,0,down,0.492124952347,LPL,f,22,60.0032212475,Set,2017_12_15_1602,
"[2.8, 2.8]",6,0,11,11,17,,,,,6,0,6,0,down,0.458801461151,LPL,f,22,60.0032212475,Set,2017_12_15_1602,
"[2.9, 2.9]",2,0,12,12,19,,,,,0,0,0,0,right,0.942117018101,LPL,f,22,60.0032212475,Set,2017_12_15_1602,
"[2.9, 2.9]",2,0,12,12,19,,,,,1,0,1,0,right,0.392120926001,LPL,f,22,60.0032212475,Set,2017_12_15_1602,
"[2.9, 2.9]",2,0,12,12,19,,,,,2,0,2,0,right,0.958777776803,LPL,f,22,60.0032212475,Set,2017_12_15_1602,
"[2.9, 2.9]",2,0,12,12,19,,,,,3,0,3,0,left,0.675455272489,LPL,f,22,60.0032212475,Set,2017_12_15_1602,
"[2.9, 2.9]",2,0,12,12,19,,,,,4,0,4,0,down,0.942137544509,LPL,f,22,60.0032212475,Set,2017_12_15_1602,
"[2.9, 2.9]",2,0,12,12,19,,,,,5,0,5,0,down,0.425454680371,LPL,f,22,60.0032212475,Set,2017_12_15_1602,
"[2.9, 2.9]",1,0,13,13,18,,,,,0,0,0,0,left,2.22544110136,LPL,f,22,60.0032212475,Set,2017_12_15_1602,
"[2.9, 2.9]",1,0,13,13,18,,,,,1,0,1,0,down,2.02546107516,LPL,f,22,60.0032212475,Set,2017_12_15_1602,
"[2.9, 2.9]",1,0,13,13,18,,,,,2,0,2,0,down,0.792096767953,LPL,f,22,60.0032212475,Set,2017_12_15_1602,
"[2.8, 2.8]",2,0,14,14,13,,,,,0,0,0,0,down,2.19208484684,LPL,f,22,60.0032212475,Set,2017_12_15_1602,
"[2.8, 2.8]",2,0,14,14,13,,,,,1,0,1,0,down,0.458781329449,LPL,f,22,60.0032212475,Set,2017_12_15_1602,
"[2.6, 2.6]",5,0,15,15,4,,,,,0,0,0,0,left,0.516923655057,LPL,f,22,60.0032212475,Set,2017_12_15_1602,
"[2.6, 2.6]",5,0,15,15,4,,,,,1,0,1,0,left,0.608804342744,LPL,f,22,60.0032212475,Set,2017_12_15_1602,
"[2.6, 2.6]",5,0,15,15,4,,,,,2,0,2,0,left,0.47542827233,LPL,f,22,60.0032212475,Set,2017_12_15_1602,
"[2.6, 2.6]",5,0,15,15,4,,,,,3,0,3,0,down,0.725440706621,LPL,f,22,60.0032212475,Set,2017_12_15_1602,
"[2.6, 2.6]",5,0,15,15,4,,,,,4,0,4,0,down,0.408784447907,LPL,f,22,60.0032212475,Set,2017_12_15_1602,
"[2.9, 2.9]",6,0,16,16,23,,,,,0,0,0,0,down,1.39206329407,LPL,f,22,60.0032212475,Set,2017_12_15_1602,
"[2.9, 2.9]",6,0,16,16,23,,,,,1,0,1,0,right,1.55876009251,LPL,f,22,60.0032212475,Set,2017_12_15_1602,
"[2.9, 2.9]",6,0,16,16,23,,,,,2,0,2,0,right,0.325464864669,LPL,f,22,60.0032212475,Set,2017_12_15_1602,
"[2.9, 2.9]",6,0,16,16,23,,,,,3,0,3,0,down,0.675496720127,LPL,f,22,60.0032212475,Set,2017_12_15_1602,
"[2.9, 2.9]",6,0,16,16,23,,,,,4,0,4,0,down,0.558756539831,LPL,f,22,60.0032212475,Set,2017_12_15_1602,
"[2.7, 2.7]",1,0,17,17,6,,,,,0,0,0,0,down,6.6668250887,LPL,f,22,60.0032212475,Set,2017_12_15_1602,
"[2.7, 2.7]",1,0,17,17,6,,,,,1,0,1,0,down,0.375445167185,LPL,f,22,60.0032212475,Set,2017_12_15_1602,
"[2.7, 2.7]",2,0,18,18,7,,,,,0,0,0,0,right,1.80872792125,LPL,f,22,60.0032212475,Set,2017_12_15_1602,
"[2.7, 2.7]",2,0,18,18,7,,,,,1,0,1,0,down,1.2587977506,LPL,f,22,60.0032212475,Set,2017_12_15_1602,
"[2.7, 2.7]",2,0,18,18,7,,,,,2,0,2,0,down,0.475455114618,LPL,f,22,60.0032212475,Set,2017_12_15_1602,
"[2.6, 2.6]",2,0,19,19,1,,,,,0,0,0,0,down,0.975464588351,LPL,f,22,60.0032212475,Set,2017_12_15_1602,
"[2.6, 2.6]",2,0,19,19,1,,,,,1,0,1,0,down,0.425457048812,LPL,f,22,60.0032212475,Set,2017_12_15_1602,
"[2.6, 2.6]",3,0,20,20,2,,,,,0,0,0,0,down,1.10022981718,LPL,f,22,60.0032212475,Set,2017_12_15_1602,
"[2.6, 2.6]",3,0,20,20,2,,,,,1,0,1,0,left,0.592107268021,LPL,f,22,60.0032212475,Set,2017_12_15_1602,
"[2.6, 2.6]",3,0,20,20,2,,,,,2,0,2,0,down,0.875442798715,LPL,f,22,60.0032212475,Set,2017_12_15_1602,
"[2.6, 2.6]",3,0,20,20,2,,,,,3,0,3,0,left,0.575441772409,LPL,f,22,60.0032212475,Set,2017_12_15_1602,
"[2.6, 2.6]",3,0,20,20,2,,,,,4,0,4,0,left,0.625459575123,LPL,f,22,60.0032212475,Set,2017_12_15_1602,
"[2.6, 2.6]",3,0,20,20,2,,,,,5,0,5,0,down,1.75877446102,LPL,f,22,60.0032212475,Set,2017_12_15_1602,
"[2.6, 2.6]",3,0,20,20,2,,,,,6,0,6,0,down,0.342117333872,LPL,f,22,60.0032212475,Set,2017_12_15_1602,
"[3.0, 3.0]",1,0,21,21,24,,,,,0,0,0,0,left,1.40022373819,LPL,f,22,60.0032212475,Set,2017_12_15_1602,
"[3.0, 3.0]",1,0,21,21,24,,,,,1,0,1,0,down,2.5087738689,LPL,f,22,60.0032212475,Set,2017_12_15_1602,
"[3.0, 3.0]",1,0,21,21,24,,,,,2,0,2,0,down,0.908776553115,LPL,f,22,60.0032212475,Set,2017_12_15_1602,
"[2.7, 2.7]",4,0,22,22,9,,,,,0,0,0,0,down,1.21694552363,LPL,f,22,60.0032212475,Set,2017_12_15_1602,
"[2.7, 2.7]",4,0,22,22,9,,,,,1,0,1,0,down,0.808791869,LPL,f,22,60.0032212475,Set,2017_12_15_1602,
"[2.6, 2.6]",1,0,23,23,0,,,,,0,0,0,0,down,1.04213446556,LPL,f,22,60.0032212475,Set,2017_12_15_1602,
"[2.6, 2.6]",1,0,23,23,0,,,,,1,0,1,0,down,0.708804421709,LPL,f,22,60.0032212475,Set,2017_12_15_1602,
"[2.7, 2.7]",3,0,24,24,8,,,,,0,0,0,0,down,1.00022973825,LPL,f,22,60.0032212475,Set,2017_12_15_1602,
"[2.7, 2.7]",3,0,24,24,8,,,,,1,0,1,0,down,0.5421257813,LPL,f,22,60.0032212475,Set,2017_12_15_1602,
"[2.8, 2.8]",3,0,25,25,14,,,,,0,0,0,0,down,0.608783421601,LPL,f,22,60.0032212475,Set,2017_12_15_1602,
"[2.8, 2.8]",3,0,25,25,14,,,,,1,0,1,0,left,0.625478917384,LPL,f,22,60.0032212475,Set,2017_12_15_1602,
"[2.8, 2.8]",3,0,25,25,14,,,,,2,0,2,0,down,0.525487127947,LPL,f,22,60.0032212475,Set,2017_12_15_1602,
"[2.8, 2.8]",3,0,25,25,14,,,,,3,0,3,0,down,0.508897817024,LPL,f,22,60.0032212475,Set,2017_12_15_1602,
"[2.8, 2.8]",5,0,26,26,16,,,,,0,0,0,0,right,2.86687893109,LPL,f,22,60.0032212475,Set,2017_12_15_1602,
"[2.8, 2.8]",5,0,26,26,16,,,,,1,0,1,0,right,0.775478641066,LPL,f,22,60.0032212475,Set,2017_12_15_1602,
"[2.8, 2.8]",5,0,26,26,16,,,,,2,0,2,0,left,1.37545543039,LPL,f,22,60.0032212475,Set,2017_12_15_1602,
"[2.8, 2.8]",5,0,26,26,16,,,,,3,0,3,0,down,0.841977596196,LPL,f,22,60.0032212475,Set,2017_12_15_1602,
"[2.8, 2.8]",5,0,26,26,16,,,,,4,0,4,0,right,0.700250422582,LPL,f,22,60.0032212475,Set,2017_12_15_1602,
"[2.8, 2.8]",5,0,26,26,16,,,,,5,0,5,0,left,0.592124241812,LPL,f,22,60.0032212475,Set,2017_12_15_1602,
"[2.8, 2.8]",5,0,26,26,16,,,,,6,0,6,0,left,0.625403127458,LPL,f,22,60.0032212475,Set,2017_12_15_1602,
"[2.8, 2.8]",5,0,26,26,16,,,,,7,0,7,0,left,1.10879052689,LPL,f,22,60.0032212475,Set,2017_12_15_1602,
"[2.8, 2.8]",5,0,26,26,16,,,,,8,0,8,0,right,0.808779237326,LPL,f,22,60.0032212475,Set,2017_12_15_1602,
"[2.8, 2.8]",5,0,26,26,16,,,,,9,0,9,0,down,0.792080188898,LPL,f,22,60.0032212475,Set,2017_12_15_1602,
"[2.8, 2.8]",5,0,26,26,16,,,,,10,0,10,0,down,2.35876980308,LPL,f,22,60.0032212475,Set,2017_12_15_1602,
"[2.7, 2.7]",6,0,27,27,11,,,,,0,0,0,0,right,2.04210367589,LPL,f,22,60.0032212475,Set,2017_12_15_1602,
"[2.7, 2.7]",6,0,27,27,11,,,,,1,0,1,0,right,0.492111531203,LPL,f,22,60.0032212475,Set,2017_12_15_1602,
"[2.7, 2.7]",6,0,27,27,11,,,,,2,0,2,0,down,0.725486101612,LPL,f,22,60.0032212475,Set,2017_12_15_1602,
"[2.7, 2.7]",6,0,27,27,11,,,,,3,0,3,0,down,0.592113189108,LPL,f,22,60.0032212475,Set,2017_12_15_1602,
"[3.0, 3.0]",6,0,28,28,29,,,,,0,0,0,0,left,0.800252475223,LPL,f,22,60.0032212475,Set,2017_12_15_1602,
"[3.0, 3.0]",6,0,28,28,29,,,,,1,0,1,0,down,0.792109004862,LPL,f,22,60.0032212475,Set,2017_12_15_1602,
"[3.0, 3.0]",6,0,28,28,29,,,,,2,0,2,0,down,0.592121873371,LPL,f,22,60.0032212475,Set,2017_12_15_1602,
"[3.0, 3.0]",2,0,29,29,25,,,,,0,0,0,0,left,1.54203538602,LPL,f,22,60.0032212475,Set,2017_12_15_1602,
"[3.0, 3.0]",2,0,29,29,25,,,,,1,0,1,0,left,2.08356787424,LPL,f,22,60.0032212475,Set,2017_12_15_1602,
"[3.0, 3.0]",2,0,29,29,25,,,,,2,0,2,0,down,0.83365136158,LPL,f,22,60.0032212475,Set,2017_12_15_1602,
"[3.0, 3.0]",2,0,29,29,25,,,,,3,0,3,0,down,0.408772210998,LPL,f,22,60.0032212475,Set,2017_12_15_1602,
