size,n,trials_2.thisRepN,trials_2.thisTrialN,trials_2.thisN,trials_2.thisIndex,trials.thisRepN,trials.thisTrialN,trials.thisN,trials.thisIndex,trials_3.thisRepN,trials_3.thisTrialN,trials_3.thisN,trials_3.thisIndex,answer.keys,answer.rt,participant,gender,age,frameRate,expName,date,
"[2.7, 2.7]",5,0,0,0,10,,,,,0,0,0,0,down,1.35023554089,LZ,m,27,59.9843250478,Set,2017_12_20_2058,
"[2.7, 2.7]",5,0,0,0,10,,,,,1,0,1,0,down,48.5748784796,LZ,m,27,59.9843250478,Set,2017_12_20_2058,
"[2.7, 2.7]",5,0,0,0,10,,,,,2,0,2,0,right,7.0420764389,LZ,m,27,59.9843250478,Set,2017_12_20_2058,
"[2.7, 2.7]",5,0,0,0,10,,,,,3,0,3,0,left,1.47543695662,LZ,m,27,59.9843250478,Set,2017_12_20_2058,
"[2.7, 2.7]",5,0,0,0,10,,,,,4,0,4,0,left,0.875491351704,LZ,m,27,59.9843250478,Set,2017_12_20_2058,
"[2.7, 2.7]",5,0,0,0,10,,,,,5,0,5,0,left,0.708759421483,LZ,m,27,59.9843250478,Set,2017_12_20_2058,
"[2.7, 2.7]",5,0,0,0,10,,,,,6,0,6,0,left,0.558820092818,LZ,m,27,59.9843250478,Set,2017_12_20_2058,
"[2.7, 2.7]",5,0,0,0,10,,,,,7,0,7,0,left,0.842107860139,LZ,m,27,59.9843250478,Set,2017_12_20_2058,
"[2.7, 2.7]",5,0,0,0,10,,,,,8,0,8,0,left,0.37543845654,LZ,m,27,59.9843250478,Set,2017_12_20_2058,
"[2.7, 2.7]",5,0,0,0,10,,,,,9,0,9,0,left,0.458810540149,LZ,m,27,59.9843250478,Set,2017_12_20_2058,
"[2.7, 2.7]",5,0,0,0,10,,,,,10,0,10,0,left,0.358780461014,LZ,m,27,59.9843250478,Set,2017_12_20_2058,
"[2.7, 2.7]",5,0,0,0,10,,,,,11,0,11,0,left,0.525447654072,LZ,m,27,59.9843250478,Set,2017_12_20_2058,
"[2.7, 2.7]",5,0,0,0,10,,,,,12,0,12,0,left,0.64210414968,LZ,m,27,59.9843250478,Set,2017_12_20_2058,
"[2.7, 2.7]",5,0,0,0,10,,,,,13,0,13,0,right,0.525422390783,LZ,m,27,59.9843250478,Set,2017_12_20_2058,
"[2.7, 2.7]",5,0,0,0,10,,,,,14,0,14,0,left,0.875445167185,LZ,m,27,59.9843250478,Set,2017_12_20_2058,
"[2.7, 2.7]",5,0,0,0,10,,,,,15,0,15,0,right,0.825465654139,LZ,m,27,59.9843250478,Set,2017_12_20_2058,
"[2.7, 2.7]",5,0,0,0,10,,,,,16,0,16,0,left,2.04209301795,LZ,m,27,59.9843250478,Set,2017_12_20_2058,
"[2.7, 2.7]",5,0,0,0,10,,,,,17,0,17,0,left,0.425453101518,LZ,m,27,59.9843250478,Set,2017_12_20_2058,
"[2.7, 2.7]",5,0,0,0,10,,,,,18,0,18,0,left,0.475419982802,LZ,m,27,59.9843250478,Set,2017_12_20_2058,
"[2.7, 2.7]",5,0,0,0,10,,,,,19,0,19,0,left,1.5087213685,LZ,m,27,59.9843250478,Set,2017_12_20_2058,
"[2.7, 2.7]",5,0,0,0,10,,,,,20,0,20,0,left,0.375447930302,LZ,m,27,59.9843250478,Set,2017_12_20_2058,
"[2.7, 2.7]",5,0,0,0,10,,,,,21,0,21,0,left,0.742129097111,LZ,m,27,59.9843250478,Set,2017_12_20_2058,
"[2.7, 2.7]",5,0,0,0,10,,,,,22,0,22,0,left,1.02544291725,LZ,m,27,59.9843250478,Set,2017_12_20_2058,
"[2.7, 2.7]",5,0,0,0,10,,,,,23,0,23,0,left,0.458780145273,LZ,m,27,59.9843250478,Set,2017_12_20_2058,
"[2.7, 2.7]",5,0,0,0,10,,,,,24,0,24,0,left,0.825428548618,LZ,m,27,59.9843250478,Set,2017_12_20_2058,
"[2.7, 2.7]",5,0,0,0,10,,,,,25,0,25,0,left,0.658760961029,LZ,m,27,59.9843250478,Set,2017_12_20_2058,
"[2.7, 2.7]",5,0,0,0,10,,,,,26,0,26,0,left,0.375434114481,LZ,m,27,59.9843250478,Set,2017_12_20_2058,
"[2.7, 2.7]",5,0,0,0,10,,,,,27,0,27,0,left,0.508780974313,LZ,m,27,59.9843250478,Set,2017_12_20_2058,
"[2.7, 2.7]",5,0,0,0,10,,,,,28,0,28,0,left,0.992140347254,LZ,m,27,59.9843250478,Set,2017_12_20_2058,
"[2.7, 2.7]",5,0,0,0,10,,,,,29,0,29,0,left,0.375460956711,LZ,m,27,59.9843250478,Set,2017_12_20_2058,
"[2.7, 2.7]",5,0,0,0,10,,,,,30,0,30,0,left,0.675469877897,LZ,m,27,59.9843250478,Set,2017_12_20_2058,
"[2.7, 2.7]",5,0,0,0,10,,,,,31,0,31,0,right,1.97543537756,LZ,m,27,59.9843250478,Set,2017_12_20_2058,
"[2.7, 2.7]",5,0,0,0,10,,,,,32,0,32,0,left,0.425482706865,LZ,m,27,59.9843250478,Set,2017_12_20_2058,
"[2.7, 2.7]",5,0,0,0,10,,,,,33,0,33,0,left,0.458835013909,LZ,m,27,59.9843250478,Set,2017_12_20_2058,
"[2.7, 2.7]",5,0,0,0,10,,,,,34,0,34,0,left,0.358788355719,LZ,m,27,59.9843250478,Set,2017_12_20_2058,
"[2.7, 2.7]",5,0,0,0,10,,,,,35,0,35,0,left,0.625442996155,LZ,m,27,59.9843250478,Set,2017_12_20_2058,
"[2.7, 2.7]",5,0,0,0,10,,,,,36,0,36,0,left,0.342145755189,LZ,m,27,59.9843250478,Set,2017_12_20_2058,
"[2.7, 2.7]",5,0,0,0,10,,,,,37,0,37,0,down,0.758803671692,LZ,m,27,59.9843250478,Set,2017_12_20_2058,
"[2.7, 2.7]",5,0,0,0,10,,,,,38,0,38,0,down,0.858806908596,LZ,m,27,59.9843250478,Set,2017_12_20_2058,
"[2.7, 2.7]",5,0,0,0,10,,,,,39,0,39,0,left,0.308783184853,LZ,m,27,59.9843250478,Set,2017_12_20_2058,
"[2.7, 2.7]",5,0,0,0,10,,,,,40,0,40,0,left,0.783552242559,LZ,m,27,59.9843250478,Set,2017_12_20_2058,
"[2.7, 2.7]",5,0,0,0,10,,,,,41,0,41,0,left,0.383544031996,LZ,m,27,59.9843250478,Set,2017_12_20_2058,
"[2.7, 2.7]",5,0,0,0,10,,,,,42,0,42,0,left,0.508793605957,LZ,m,27,59.9843250478,Set,2017_12_20_2058,
"[2.7, 2.7]",5,0,0,0,10,,,,,43,0,43,0,down,0.975421166979,LZ,m,27,59.9843250478,Set,2017_12_20_2058,
"[2.7, 2.7]",5,0,0,0,10,,,,,44,0,44,0,right,0.592126215459,LZ,m,27,59.9843250478,Set,2017_12_20_2058,
"[2.7, 2.7]",5,0,0,0,10,,,,,45,0,45,0,down,1.47549103585,LZ,m,27,59.9843250478,Set,2017_12_20_2058,
"[2.7, 2.7]",5,0,0,0,10,,,,,46,0,46,0,left,0.34210351808,LZ,m,27,59.9843250478,Set,2017_12_20_2058,
"[2.7, 2.7]",5,0,0,0,10,,,,,47,0,47,0,down,1.44215214986,LZ,m,27,59.9843250478,Set,2017_12_20_2058,
"[2.7, 2.7]",5,0,0,0,10,,,,,48,0,48,0,down,2.2502109881,LZ,m,27,59.9843250478,Set,2017_12_20_2058,
"[2.7, 2.7]",5,0,0,0,10,,,,,49,0,49,0,left,0.475457088207,LZ,m,27,59.9843250478,Set,2017_12_20_2058,
"[2.7, 2.7]",5,0,0,0,10,,,,,50,0,50,0,right,0.458794750622,LZ,m,27,59.9843250478,Set,2017_12_20_2058,
"[2.7, 2.7]",5,0,0,0,10,,,,,51,0,51,0,left,0.333582282183,LZ,m,27,59.9843250478,Set,2017_12_20_2058,
"[2.7, 2.7]",5,0,0,0,10,,,,,52,0,52,0,right,0.308785947971,LZ,m,27,59.9843250478,Set,2017_12_20_2058,
"[2.7, 2.7]",5,0,0,0,10,,,,,53,0,53,0,right,0.558751803008,LZ,m,27,59.9843250478,Set,2017_12_20_2058,
"[2.7, 2.7]",5,0,0,0,10,,,,,54,0,54,0,left,0.408774974174,LZ,m,27,59.9843250478,Set,2017_12_20_2058,
"[2.7, 2.7]",5,0,0,0,10,,,,,55,0,55,0,right,0.408726421185,LZ,m,27,59.9843250478,Set,2017_12_20_2058,
"[2.7, 2.7]",5,0,0,0,10,,,,,56,0,56,0,left,0.375463719945,LZ,m,27,59.9843250478,Set,2017_12_20_2058,
"[2.7, 2.7]",5,0,0,0,10,,,,,57,0,57,0,right,0.458797118976,LZ,m,27,59.9843250478,Set,2017_12_20_2058,
"[2.7, 2.7]",5,0,0,0,10,,,,,58,0,58,0,left,0.342074307264,LZ,m,27,59.9843250478,Set,2017_12_20_2058,
"[2.7, 2.7]",5,0,0,0,10,,,,,59,0,59,0,right,0.608783816337,LZ,m,27,59.9843250478,Set,2017_12_20_2058,
"[2.7, 2.7]",5,0,0,0,10,,,,,60,0,60,0,left,0.375458588242,LZ,m,27,59.9843250478,Set,2017_12_20_2058,
"[2.7, 2.7]",5,0,0,0,10,,,,,61,0,61,0,right,0.558803513879,LZ,m,27,59.9843250478,Set,2017_12_20_2058,
"[2.7, 2.7]",5,0,0,0,10,,,,,62,0,62,0,left,0.89212013653,LZ,m,27,59.9843250478,Set,2017_12_20_2058,
"[2.7, 2.7]",5,0,0,0,10,,,,,63,0,63,0,left,0.625459180446,LZ,m,27,59.9843250478,Set,2017_12_20_2058,
"[2.7, 2.7]",5,0,0,0,10,,,,,64,0,64,0,right,0.742114886409,LZ,m,27,59.9843250478,Set,2017_12_20_2058,
"[2.7, 2.7]",5,0,0,0,10,,,,,65,0,65,0,left,0.525440943427,LZ,m,27,59.9843250478,Set,2017_12_20_2058,
"[2.7, 2.7]",5,0,0,0,10,,,,,66,0,66,0,left,2.12535615347,LZ,m,27,59.9843250478,Set,2017_12_20_2058,
"[2.7, 2.7]",5,0,0,0,10,,,,,67,0,67,0,right,0.383405478555,LZ,m,27,59.9843250478,Set,2017_12_20_2058,
"[2.7, 2.7]",5,0,0,0,10,,,,,68,0,68,0,left,0.450253383024,LZ,m,27,59.9843250478,Set,2017_12_20_2058,
"[2.7, 2.7]",5,0,0,0,10,,,,,69,0,69,0,right,0.400229659281,LZ,m,27,59.9843250478,Set,2017_12_20_2058,
"[2.7, 2.7]",5,0,0,0,10,,,,,70,0,70,0,right,1.43366683531,LZ,m,27,59.9843250478,Set,2017_12_20_2058,
"[2.7, 2.7]",5,0,0,0,10,,,,,71,0,71,0,left,0.37543253554,LZ,m,27,59.9843250478,Set,2017_12_20_2058,
"[2.7, 2.7]",5,0,0,0,10,,,,,72,0,72,0,right,0.342141018249,LZ,m,27,59.9843250478,Set,2017_12_20_2058,
"[2.7, 2.7]",5,0,0,0,10,,,,,73,0,73,0,down,0.608795658569,LZ,m,27,59.9843250478,Set,2017_12_20_2058,
"[2.7, 2.7]",5,0,0,0,10,,,,,74,0,74,0,down,0.608789737453,LZ,m,27,59.9843250478,Set,2017_12_20_2058,
"[2.7, 2.7]",5,0,0,0,10,,,,,75,0,75,0,right,0.342101939023,LZ,m,27,59.9843250478,Set,2017_12_20_2058,
"[2.7, 2.7]",5,0,0,0,10,,,,,76,0,76,0,down,0.675369219389,LZ,m,27,59.9843250478,Set,2017_12_20_2058,
"[2.7, 2.7]",5,0,0,0,10,,,,,77,0,77,0,right,0.366876167944,LZ,m,27,59.9843250478,Set,2017_12_20_2058,
"[2.7, 2.7]",5,0,0,0,10,,,,,78,0,78,0,left,0.983580427011,LZ,m,27,59.9843250478,Set,2017_12_20_2058,
"[2.7, 2.7]",5,0,0,0,10,,,,,79,0,79,0,left,0.883572058519,LZ,m,27,59.9843250478,Set,2017_12_20_2058,
"[2.7, 2.7]",5,0,0,0,10,,,,,80,0,80,0,down,1.24211251806,LZ,m,27,59.9843250478,Set,2017_12_20_2058,
"[2.7, 2.7]",5,0,0,0,10,,,,,81,0,81,0,left,0.575447693467,LZ,m,27,59.9843250478,Set,2017_12_20_2058,
"[2.7, 2.7]",5,0,0,0,10,,,,,82,0,82,0,right,0.342120886547,LZ,m,27,59.9843250478,Set,2017_12_20_2058,
"[2.7, 2.7]",5,0,0,0,10,,,,,83,0,83,0,right,0.408790369052,LZ,m,27,59.9843250478,Set,2017_12_20_2058,
"[2.7, 2.7]",5,0,0,0,10,,,,,84,0,84,0,right,0.275460877805,LZ,m,27,59.9843250478,Set,2017_12_20_2058,
"[2.7, 2.7]",5,0,0,0,10,,,,,85,0,85,0,right,1.2421452814,LZ,m,27,59.9843250478,Set,2017_12_20_2058,
"[2.7, 2.7]",5,0,0,0,10,,,,,86,0,86,0,down,0.775452193571,LZ,m,27,59.9843250478,Set,2017_12_20_2058,
"[2.7, 2.7]",5,0,0,0,10,,,,,87,0,87,0,right,0.375462535769,LZ,m,27,59.9843250478,Set,2017_12_20_2058,
"[2.7, 2.7]",5,0,0,0,10,,,,,88,0,88,0,right,0.325456575141,LZ,m,27,59.9843250478,Set,2017_12_20_2058,
"[2.7, 2.7]",5,0,0,0,10,,,,,89,0,89,0,right,0.575439798646,LZ,m,27,59.9843250478,Set,2017_12_20_2058,
"[2.7, 2.7]",5,0,0,0,10,,,,,90,0,90,0,down,0.742124360171,LZ,m,27,59.9843250478,Set,2017_12_20_2058,
"[2.7, 2.7]",5,0,0,0,10,,,,,91,0,91,0,right,0.542130123475,LZ,m,27,59.9843250478,Set,2017_12_20_2058,
"[2.7, 2.7]",5,0,0,0,10,,,,,92,0,92,0,right,0.358795855893,LZ,m,27,59.9843250478,Set,2017_12_20_2058,
"[2.7, 2.7]",5,0,0,0,10,,,,,93,0,93,0,left,0.525453575188,LZ,m,27,59.9843250478,Set,2017_12_20_2058,
"[2.7, 2.7]",5,0,0,0,10,,,,,94,0,94,0,right,0.292127162917,LZ,m,27,59.9843250478,Set,2017_12_20_2058,
"[2.7, 2.7]",5,0,0,0,10,,,,,95,0,95,0,down,0.49210205744,LZ,m,27,59.9843250478,Set,2017_12_20_2058,
"[2.7, 2.7]",5,0,0,0,10,,,,,96,0,96,0,down,0.658791750553,LZ,m,27,59.9843250478,Set,2017_12_20_2058,
"[2.9, 2.9]",4,0,1,1,21,,,,,0,0,0,0,right,0.500227369834,LZ,m,27,59.9843250478,Set,2017_12_20_2058,
"[2.9, 2.9]",4,0,1,1,21,,,,,1,0,1,0,down,0.608819342917,LZ,m,27,59.9843250478,Set,2017_12_20_2058,
"[2.9, 2.9]",4,0,1,1,21,,,,,2,0,2,0,left,0.358792303246,LZ,m,27,59.9843250478,Set,2017_12_20_2058,
"[2.9, 2.9]",4,0,1,1,21,,,,,3,0,3,0,right,0.29210268904,LZ,m,27,59.9843250478,Set,2017_12_20_2058,
"[2.9, 2.9]",4,0,1,1,21,,,,,4,0,4,0,down,0.675440667197,LZ,m,27,59.9843250478,Set,2017_12_20_2058,
"[2.9, 2.9]",4,0,1,1,21,,,,,5,0,5,0,right,0.358795855893,LZ,m,27,59.9843250478,Set,2017_12_20_2058,
"[2.9, 2.9]",4,0,1,1,21,,,,,6,0,6,0,down,0.725461233058,LZ,m,27,59.9843250478,Set,2017_12_20_2058,
"[2.9, 2.9]",4,0,1,1,21,,,,,7,0,7,0,right,0.44213912345,LZ,m,27,59.9843250478,Set,2017_12_20_2058,
"[2.9, 2.9]",4,0,1,1,21,,,,,8,0,8,0,down,0.642118360265,LZ,m,27,59.9843250478,Set,2017_12_20_2058,
"[2.9, 2.9]",4,0,1,1,21,,,,,9,0,9,0,right,0.492129294435,LZ,m,27,59.9843250478,Set,2017_12_20_2058,
"[2.9, 2.9]",4,0,1,1,21,,,,,10,0,10,0,down,0.592140031396,LZ,m,27,59.9843250478,Set,2017_12_20_2058,
"[2.9, 2.9]",4,0,1,1,21,,,,,11,0,11,0,right,0.458787250565,LZ,m,27,59.9843250478,Set,2017_12_20_2058,
"[2.9, 2.9]",4,0,1,1,21,,,,,12,0,12,0,right,0.275464430451,LZ,m,27,59.9843250478,Set,2017_12_20_2058,
"[2.9, 2.9]",4,0,1,1,21,,,,,13,0,13,0,down,1.09219608433,LZ,m,27,59.9843250478,Set,2017_12_20_2058,
"[2.9, 2.9]",4,0,1,1,21,,,,,14,0,14,0,right,0.333565308363,LZ,m,27,59.9843250478,Set,2017_12_20_2058,
"[2.9, 2.9]",4,0,1,1,21,,,,,15,0,15,0,right,0.375498062233,LZ,m,27,59.9843250478,Set,2017_12_20_2058,
"[2.9, 2.9]",4,0,1,1,21,,,,,16,0,16,0,right,0.225450969883,LZ,m,27,59.9843250478,Set,2017_12_20_2058,
"[2.9, 2.9]",4,0,1,1,21,,,,,17,0,17,0,right,0.208813895471,LZ,m,27,59.9843250478,Set,2017_12_20_2058,
"[2.9, 2.9]",4,0,1,1,21,,,,,18,0,18,0,down,1.04214788671,LZ,m,27,59.9843250478,Set,2017_12_20_2058,
"[2.9, 2.9]",4,0,1,1,21,,,,,19,0,19,0,right,0.19211839966,LZ,m,27,59.9843250478,Set,2017_12_20_2058,
"[2.9, 2.9]",4,0,1,1,21,,,,,20,0,20,0,right,0.592118320637,LZ,m,27,59.9843250478,Set,2017_12_20_2058,
"[2.9, 2.9]",4,0,1,1,21,,,,,21,0,21,0,down,0.742113702348,LZ,m,27,59.9843250478,Set,2017_12_20_2058,
"[2.9, 2.9]",4,0,1,1,21,,,,,22,0,22,0,right,0.183578216354,LZ,m,27,59.9843250478,Set,2017_12_20_2058,
"[2.9, 2.9]",4,0,1,1,21,,,,,23,0,23,0,right,0.242148834048,LZ,m,27,59.9843250478,Set,2017_12_20_2058,
"[2.9, 2.9]",4,0,1,1,21,,,,,24,0,24,0,right,0.308806079556,LZ,m,27,59.9843250478,Set,2017_12_20_2058,
"[2.9, 2.9]",4,0,1,1,21,,,,,25,0,25,0,down,0.642016517464,LZ,m,27,59.9843250478,Set,2017_12_20_2058,
"[2.9, 2.9]",4,0,1,1,21,,,,,26,0,26,0,right,0.700224764529,LZ,m,27,59.9843250478,Set,2017_12_20_2058,
"[2.9, 2.9]",4,0,1,1,21,,,,,27,0,27,0,left,0.350236725062,LZ,m,27,59.9843250478,Set,2017_12_20_2058,
"[2.9, 2.9]",4,0,1,1,21,,,,,28,0,28,0,right,0.583565900452,LZ,m,27,59.9843250478,Set,2017_12_20_2058,
"[2.9, 2.9]",4,0,1,1,21,,,,,29,0,29,0,left,0.767050563707,LZ,m,27,59.9843250478,Set,2017_12_20_2058,
"[2.9, 2.9]",4,0,1,1,21,,,,,30,0,30,0,right,0.342130755074,LZ,m,27,59.9843250478,Set,2017_12_20_2058,
"[2.9, 2.9]",4,0,1,1,21,,,,,31,0,31,0,right,0.375450693537,LZ,m,27,59.9843250478,Set,2017_12_20_2058,
"[2.9, 2.9]",4,0,1,1,21,,,,,32,0,32,0,right,0.325445522438,LZ,m,27,59.9843250478,Set,2017_12_20_2058,
"[2.9, 2.9]",4,0,1,1,21,,,,,33,0,33,0,right,0.775401272113,LZ,m,27,59.9843250478,Set,2017_12_20_2058,
"[2.9, 2.9]",4,0,1,1,21,,,,,34,0,34,0,down,0.425468891044,LZ,m,27,59.9843250478,Set,2017_12_20_2058,
"[2.9, 2.9]",4,0,1,1,21,,,,,35,0,35,0,right,0.608819737565,LZ,m,27,59.9843250478,Set,2017_12_20_2058,
"[2.9, 2.9]",4,0,1,1,21,,,,,36,0,36,0,right,0.325430522324,LZ,m,27,59.9843250478,Set,2017_12_20_2058,
"[2.9, 2.9]",4,0,1,1,21,,,,,37,0,37,0,right,0.408789579524,LZ,m,27,59.9843250478,Set,2017_12_20_2058,
"[2.9, 2.9]",4,0,1,1,21,,,,,38,0,38,0,down,0.592188979033,LZ,m,27,59.9843250478,Set,2017_12_20_2058,
"[2.9, 2.9]",4,0,1,1,21,,,,,39,0,39,0,right,0.208800869063,LZ,m,27,59.9843250478,Set,2017_12_20_2058,
"[2.9, 2.9]",4,0,1,1,21,,,,,40,0,40,0,right,0.275469562039,LZ,m,27,59.9843250478,Set,2017_12_20_2058,
"[2.9, 2.9]",4,0,1,1,21,,,,,41,0,41,0,right,0.208777184715,LZ,m,27,59.9843250478,Set,2017_12_20_2058,
"[2.9, 2.9]",4,0,1,1,21,,,,,42,0,42,0,right,0.142147570848,LZ,m,27,59.9843250478,Set,2017_12_20_2058,
"[2.9, 2.9]",4,0,1,1,21,,,,,43,0,43,0,right,0.375477535767,LZ,m,27,59.9843250478,Set,2017_12_20_2058,
"[2.9, 2.9]",4,0,1,1,21,,,,,44,0,44,0,left,0.375451088184,LZ,m,27,59.9843250478,Set,2017_12_20_2058,
"[2.9, 2.9]",4,0,1,1,21,,,,,45,0,45,0,right,0.458781329449,LZ,m,27,59.9843250478,Set,2017_12_20_2058,
"[2.9, 2.9]",4,0,1,1,21,,,,,46,0,46,0,right,1.17546237784,LZ,m,27,59.9843250478,Set,2017_12_20_2058,
"[2.9, 2.9]",4,0,1,1,21,,,,,47,0,47,0,down,0.658795697964,LZ,m,27,59.9843250478,Set,2017_12_20_2058,
"[2.9, 2.9]",4,0,1,1,21,,,,,48,0,48,0,right,0.550209645997,LZ,m,27,59.9843250478,Set,2017_12_20_2058,
"[2.9, 2.9]",4,0,1,1,21,,,,,49,0,49,0,right,0.475455114618,LZ,m,27,59.9843250478,Set,2017_12_20_2058,
"[2.9, 2.9]",4,0,1,1,21,,,,,50,0,50,0,right,0.375451088301,LZ,m,27,59.9843250478,Set,2017_12_20_2058,
"[2.9, 2.9]",4,0,1,1,21,,,,,51,0,51,0,down,0.758768539876,LZ,m,27,59.9843250478,Set,2017_12_20_2058,
"[2.9, 2.9]",4,0,1,1,21,,,,,52,0,52,0,right,0.39210553118,LZ,m,27,59.9843250478,Set,2017_12_20_2058,
"[2.9, 2.9]",4,0,1,1,21,,,,,53,0,53,0,right,0.325450654025,LZ,m,27,59.9843250478,Set,2017_12_20_2058,
"[2.9, 2.9]",4,0,1,1,21,,,,,54,0,54,0,right,0.642204413307,LZ,m,27,59.9843250478,Set,2017_12_20_2058,
"[2.9, 2.9]",4,0,1,1,21,,,,,55,0,55,0,right,0.325451443554,LZ,m,27,59.9843250478,Set,2017_12_20_2058,
"[2.9, 2.9]",4,0,1,1,21,,,,,56,0,56,0,right,0.275404035347,LZ,m,27,59.9843250478,Set,2017_12_20_2058,
"[2.9, 2.9]",4,0,1,1,21,,,,,57,0,57,0,right,0.492119426024,LZ,m,27,59.9843250478,Set,2017_12_20_2058,
"[2.9, 2.9]",4,0,1,1,21,,,,,58,0,58,0,right,0.242131070816,LZ,m,27,59.9843250478,Set,2017_12_20_2058,
"[2.9, 2.9]",4,0,1,1,21,,,,,59,0,59,0,down,0.708788632066,LZ,m,27,59.9843250478,Set,2017_12_20_2058,
"[2.9, 2.9]",4,0,1,1,21,,,,,60,0,60,0,right,0.358784408425,LZ,m,27,59.9843250478,Set,2017_12_20_2058,
"[2.9, 2.9]",4,0,1,1,21,,,,,61,0,61,0,right,0.375470825238,LZ,m,27,59.9843250478,Set,2017_12_20_2058,
"[2.9, 2.9]",4,0,1,1,21,,,,,62,0,62,0,right,0.342133518192,LZ,m,27,59.9843250478,Set,2017_12_20_2058,
"[2.9, 2.9]",4,0,1,1,21,,,,,63,0,63,0,down,0.742155149928,LZ,m,27,59.9843250478,Set,2017_12_20_2058,
"[2.9, 2.9]",4,0,1,1,21,,,,,64,0,64,0,right,0.308805684908,LZ,m,27,59.9843250478,Set,2017_12_20_2058,
"[2.9, 2.9]",4,0,1,1,21,,,,,65,0,65,0,right,0.292143347207,LZ,m,27,59.9843250478,Set,2017_12_20_2058,
"[2.9, 2.9]",4,0,1,1,21,,,,,66,0,66,0,right,0.125456417212,LZ,m,27,59.9843250478,Set,2017_12_20_2058,
"[2.9, 2.9]",4,0,1,1,21,,,,,67,0,67,0,right,0.12549470691,LZ,m,27,59.9843250478,Set,2017_12_20_2058,
"[2.9, 2.9]",4,0,1,1,21,,,,,68,0,68,0,right,0.191950635519,LZ,m,27,59.9843250478,Set,2017_12_20_2058,
"[2.9, 2.9]",4,0,1,1,21,,,,,69,0,69,0,down,0.492119820672,LZ,m,27,59.9843250478,Set,2017_12_20_2058,
"[2.9, 2.9]",4,0,1,1,21,,,,,70,0,70,0,down,0.358765066136,LZ,m,27,59.9843250478,Set,2017_12_20_2058,
"[2.8, 2.8]",5,0,2,2,16,,,,,0,0,0,0,down,1.48355003202,LZ,m,27,59.9843250478,Set,2017_12_20_2058,
"[2.8, 2.8]",5,0,2,2,16,,,,,1,0,1,0,left,1.89211342589,LZ,m,27,59.9843250478,Set,2017_12_20_2058,
"[2.8, 2.8]",5,0,2,2,16,,,,,2,0,2,0,right,0.475463009439,LZ,m,27,59.9843250478,Set,2017_12_20_2058,
"[2.8, 2.8]",5,0,2,2,16,,,,,3,0,3,0,down,0.358821513946,LZ,m,27,59.9843250478,Set,2017_12_20_2058,
"[2.8, 2.8]",5,0,2,2,16,,,,,4,0,4,0,down,0.692128662835,LZ,m,27,59.9843250478,Set,2017_12_20_2058,
"[3.0, 3.0]",2,0,3,3,25,,,,,0,0,0,0,right,1.53356862417,LZ,m,27,59.9843250478,Set,2017_12_20_2058,
"[3.0, 3.0]",2,0,3,3,25,,,,,1,0,1,0,left,1.27544903557,LZ,m,27,59.9843250478,Set,2017_12_20_2058,
"[3.0, 3.0]",2,0,3,3,25,,,,,2,0,2,0,down,0.442114254925,LZ,m,27,59.9843250478,Set,2017_12_20_2058,
"[3.0, 3.0]",2,0,3,3,25,,,,,3,0,3,0,down,0.692112478544,LZ,m,27,59.9843250478,Set,2017_12_20_2058,
"[3.0, 3.0]",2,0,3,3,25,,,,,4,0,4,0,left,0.542134860181,LZ,m,27,59.9843250478,Set,2017_12_20_2058,
"[3.0, 3.0]",2,0,3,3,25,,,,,5,0,5,0,right,0.258794987341,LZ,m,27,59.9843250478,Set,2017_12_20_2058,
"[3.0, 3.0]",2,0,3,3,25,,,,,6,0,6,0,left,0.475431824918,LZ,m,27,59.9843250478,Set,2017_12_20_2058,
"[3.0, 3.0]",2,0,3,3,25,,,,,7,0,7,0,right,0.392102767946,LZ,m,27,59.9843250478,Set,2017_12_20_2058,
"[3.0, 3.0]",2,0,3,3,25,,,,,8,0,8,0,right,0.342123254901,LZ,m,27,59.9843250478,Set,2017_12_20_2058,
"[3.0, 3.0]",2,0,3,3,25,,,,,9,0,9,0,right,0.225455311942,LZ,m,27,59.9843250478,Set,2017_12_20_2058,
"[3.0, 3.0]",2,0,3,3,25,,,,,10,0,10,0,right,0.375447535655,LZ,m,27,59.9843250478,Set,2017_12_20_2058,
"[3.0, 3.0]",2,0,3,3,25,,,,,11,0,11,0,right,0.37544950936,LZ,m,27,59.9843250478,Set,2017_12_20_2058,
"[3.0, 3.0]",2,0,3,3,25,,,,,12,0,12,0,right,0.675446588313,LZ,m,27,59.9843250478,Set,2017_12_20_2058,
"[3.0, 3.0]",2,0,3,3,25,,,,,13,0,13,0,right,0.408811290166,LZ,m,27,59.9843250478,Set,2017_12_20_2058,
"[3.0, 3.0]",2,0,3,3,25,,,,,14,0,14,0,right,0.125448127743,LZ,m,27,59.9843250478,Set,2017_12_20_2058,
"[3.0, 3.0]",2,0,3,3,25,,,,,15,0,15,0,right,0.292139005032,LZ,m,27,59.9843250478,Set,2017_12_20_2058,
"[3.0, 3.0]",2,0,3,3,25,,,,,16,0,16,0,right,0.108792105922,LZ,m,27,59.9843250478,Set,2017_12_20_2058,
"[3.0, 3.0]",2,0,3,3,25,,,,,17,0,17,0,right,0.291959004011,LZ,m,27,59.9843250478,Set,2017_12_20_2058,
"[3.0, 3.0]",2,0,3,3,25,,,,,18,0,18,0,right,0.275456535746,LZ,m,27,59.9843250478,Set,2017_12_20_2058,
"[3.0, 3.0]",2,0,3,3,25,,,,,19,0,19,0,right,0.275462061982,LZ,m,27,59.9843250478,Set,2017_12_20_2058,
"[3.0, 3.0]",2,0,3,3,25,,,,,20,0,20,0,right,0.175467509427,LZ,m,27,59.9843250478,Set,2017_12_20_2058,
"[3.0, 3.0]",2,0,3,3,25,,,,,21,0,21,0,left,0.392131583882,LZ,m,27,59.9843250478,Set,2017_12_20_2058,
"[3.0, 3.0]",2,0,3,3,25,,,,,22,0,22,0,right,0.275461667334,LZ,m,27,59.9843250478,Set,2017_12_20_2058,
"[3.0, 3.0]",2,0,3,3,25,,,,,23,0,23,0,down,0.592129768105,LZ,m,27,59.9843250478,Set,2017_12_20_2058,
"[3.0, 3.0]",2,0,3,3,25,,,,,24,0,24,0,right,0.358785592602,LZ,m,27,59.9843250478,Set,2017_12_20_2058,
"[3.0, 3.0]",2,0,3,3,25,,,,,25,0,25,0,down,0.575441377587,LZ,m,27,59.9843250478,Set,2017_12_20_2058,
"[3.0, 3.0]",2,0,3,3,25,,,,,26,0,26,0,down,0.242114096996,LZ,m,27,59.9843250478,Set,2017_12_20_2058,
"[2.8, 2.8]",2,0,4,4,13,,,,,0,0,0,0,right,1.93353459775,LZ,m,27,59.9843250478,Set,2017_12_20_2058,
"[2.8, 2.8]",2,0,4,4,13,,,,,1,0,1,0,down,0.34210470214,LZ,m,27,59.9843250478,Set,2017_12_20_2058,
"[2.8, 2.8]",2,0,4,4,13,,,,,2,0,2,0,down,0.192115241662,LZ,m,27,59.9843250478,Set,2017_12_20_2058,
"[2.8, 2.8]",2,0,4,4,13,,,,,3,0,3,0,left,0.392098031007,LZ,m,27,59.9843250478,Set,2017_12_20_2058,
"[2.8, 2.8]",2,0,4,4,13,,,,,4,0,4,0,down,0.975454719854,LZ,m,27,59.9843250478,Set,2017_12_20_2058,
"[2.8, 2.8]",2,0,4,4,13,,,,,5,0,5,0,down,0.45879159274,LZ,m,27,59.9843250478,Set,2017_12_20_2058,
"[2.8, 2.8]",2,0,4,4,13,,,,,6,0,6,0,right,0.291970451362,LZ,m,27,59.9843250478,Set,2017_12_20_2058,
"[2.8, 2.8]",2,0,4,4,13,,,,,7,0,7,0,right,0.525447259191,LZ,m,27,59.9843250478,Set,2017_12_20_2058,
"[2.8, 2.8]",2,0,4,4,13,,,,,8,0,8,0,down,0.475465772557,LZ,m,27,59.9843250478,Set,2017_12_20_2058,
"[2.8, 2.8]",2,0,4,4,13,,,,,9,0,9,0,down,0.442109123338,LZ,m,27,59.9843250478,Set,2017_12_20_2058,
"[3.0, 3.0]",3,0,5,5,26,,,,,0,0,0,0,right,0.100217185565,LZ,m,27,59.9843250478,Set,2017_12_20_2058,
"[3.0, 3.0]",3,0,5,5,26,,,,,1,0,1,0,right,0.541982885799,LZ,m,27,59.9843250478,Set,2017_12_20_2058,
"[3.0, 3.0]",3,0,5,5,26,,,,,2,0,2,0,down,0.466894404846,LZ,m,27,59.9843250478,Set,2017_12_20_2058,
"[3.0, 3.0]",3,0,5,5,26,,,,,3,0,3,0,left,0.408778132056,LZ,m,27,59.9843250478,Set,2017_12_20_2058,
"[3.0, 3.0]",3,0,5,5,26,,,,,4,0,4,0,right,0.208822579705,LZ,m,27,59.9843250478,Set,2017_12_20_2058,
"[3.0, 3.0]",3,0,5,5,26,,,,,5,0,5,0,left,0.308795026853,LZ,m,27,59.9843250478,Set,2017_12_20_2058,
"[3.0, 3.0]",3,0,5,5,26,,,,,6,0,6,0,down,0.575452035642,LZ,m,27,59.9843250478,Set,2017_12_20_2058,
"[3.0, 3.0]",3,0,5,5,26,,,,,7,0,7,0,left,0.400244264631,LZ,m,27,59.9843250478,Set,2017_12_20_2058,
"[3.0, 3.0]",3,0,5,5,26,,,,,8,0,8,0,down,0.37544477242,LZ,m,27,59.9843250478,Set,2017_12_20_2058,
"[3.0, 3.0]",3,0,5,5,26,,,,,9,0,9,0,left,0.525459890952,LZ,m,27,59.9843250478,Set,2017_12_20_2058,
"[3.0, 3.0]",3,0,5,5,26,,,,,10,0,10,0,down,0.408767868881,LZ,m,27,59.9843250478,Set,2017_12_20_2058,
"[3.0, 3.0]",3,0,5,5,26,,,,,11,0,11,0,down,0.358802566421,LZ,m,27,59.9843250478,Set,2017_12_20_2058,
"[3.0, 3.0]",3,0,5,5,26,,,,,12,0,12,0,left,0.292125583976,LZ,m,27,59.9843250478,Set,2017_12_20_2058,
"[3.0, 3.0]",3,0,5,5,26,,,,,13,0,13,0,left,0.175447377726,LZ,m,27,59.9843250478,Set,2017_12_20_2058,
"[3.0, 3.0]",3,0,5,5,26,,,,,14,0,14,0,left,0.675473035779,LZ,m,27,59.9843250478,Set,2017_12_20_2058,
"[3.0, 3.0]",3,0,5,5,26,,,,,15,0,15,0,left,0.358818750712,LZ,m,27,59.9843250478,Set,2017_12_20_2058,
"[3.0, 3.0]",3,0,5,5,26,,,,,16,0,16,0,down,0.292159926263,LZ,m,27,59.9843250478,Set,2017_12_20_2058,
"[3.0, 3.0]",3,0,5,5,26,,,,,17,0,17,0,down,0.675470272545,LZ,m,27,59.9843250478,Set,2017_12_20_2058,
"[2.7, 2.7]",2,0,6,6,7,,,,,0,0,0,0,down,0.116931628785,LZ,m,27,59.9843250478,Set,2017_12_20_2058,
"[2.7, 2.7]",2,0,6,6,7,,,,,1,0,1,0,down,0.19213537348,LZ,m,27,59.9843250478,Set,2017_12_20_2058,
"[2.6, 2.6]",3,0,7,7,2,,,,,0,0,0,0,down,0.13358804537,LZ,m,27,59.9843250478,Set,2017_12_20_2058,
"[2.6, 2.6]",3,0,7,7,2,,,,,1,0,1,0,down,1.17542408803,LZ,m,27,59.9843250478,Set,2017_12_20_2058,
"[2.7, 2.7]",4,0,8,8,9,,,,,0,0,0,0,down,2.18354861101,LZ,m,27,59.9843250478,Set,2017_12_20_2058,
"[2.7, 2.7]",4,0,8,8,9,,,,,1,0,1,0,right,1.67543474608,LZ,m,27,59.9843250478,Set,2017_12_20_2058,
"[2.7, 2.7]",4,0,8,8,9,,,,,2,0,2,0,left,0.442125307512,LZ,m,27,59.9843250478,Set,2017_12_20_2058,
"[2.7, 2.7]",4,0,8,8,9,,,,,3,0,3,0,down,0.392130794469,LZ,m,27,59.9843250478,Set,2017_12_20_2058,
"[2.7, 2.7]",4,0,8,8,9,,,,,4,0,4,0,down,0.0754619041691,LZ,m,27,59.9843250478,Set,2017_12_20_2058,
"[2.6, 2.6]",1,0,9,9,0,,,,,0,0,0,0,down,3.87540135102,LZ,m,27,59.9843250478,Set,2017_12_20_2058,
"[2.6, 2.6]",1,0,9,9,0,,,,,1,0,1,0,right,0.425456259283,LZ,m,27,59.9843250478,Set,2017_12_20_2058,
"[2.6, 2.6]",1,0,9,9,0,,,,,2,0,2,0,right,0.442106360104,LZ,m,27,59.9843250478,Set,2017_12_20_2058,
"[2.6, 2.6]",1,0,9,9,0,,,,,3,0,3,0,right,0.475466561969,LZ,m,27,59.9843250478,Set,2017_12_20_2058,
"[2.6, 2.6]",1,0,9,9,0,,,,,4,0,4,0,right,0.32546328567,LZ,m,27,59.9843250478,Set,2017_12_20_2058,
"[2.6, 2.6]",1,0,9,9,0,,,,,5,0,5,0,down,0.258795382222,LZ,m,27,59.9843250478,Set,2017_12_20_2058,
"[2.6, 2.6]",1,0,9,9,0,,,,,6,0,6,0,down,0.0421360444743,LZ,m,27,59.9843250478,Set,2017_12_20_2058,
"[2.7, 2.7]",3,0,10,10,8,,,,,0,0,0,0,down,1.8335096502,LZ,m,27,59.9843250478,Set,2017_12_20_2058,
"[2.7, 2.7]",3,0,10,10,8,,,,,1,0,1,0,right,0.50878728996,LZ,m,27,59.9843250478,Set,2017_12_20_2058,
"[2.7, 2.7]",3,0,10,10,8,,,,,2,0,2,0,right,1.12544575927,LZ,m,27,59.9843250478,Set,2017_12_20_2058,
"[2.7, 2.7]",3,0,10,10,8,,,,,3,0,3,0,right,0.39212605753,LZ,m,27,59.9843250478,Set,2017_12_20_2058,
"[2.7, 2.7]",3,0,10,10,8,,,,,4,0,4,0,right,0.308787132148,LZ,m,27,59.9843250478,Set,2017_12_20_2058,
"[2.7, 2.7]",3,0,10,10,8,,,,,5,0,5,0,right,0.392116189119,LZ,m,27,59.9843250478,Set,2017_12_20_2058,
"[2.7, 2.7]",3,0,10,10,8,,,,,6,0,6,0,right,0.35876782937,LZ,m,27,59.9843250478,Set,2017_12_20_2058,
"[2.7, 2.7]",3,0,10,10,8,,,,,7,0,7,0,right,0.358805329655,LZ,m,27,59.9843250478,Set,2017_12_20_2058,
"[2.7, 2.7]",3,0,10,10,8,,,,,8,0,8,0,right,0.325498022721,LZ,m,27,59.9843250478,Set,2017_12_20_2058,
"[2.7, 2.7]",3,0,10,10,8,,,,,9,0,9,0,right,0.466901510139,LZ,m,27,59.9843250478,Set,2017_12_20_2058,
"[2.7, 2.7]",3,0,10,10,8,,,,,10,0,10,0,right,0.275455746101,LZ,m,27,59.9843250478,Set,2017_12_20_2058,
"[2.7, 2.7]",3,0,10,10,8,,,,,11,0,11,0,right,0.408793526934,LZ,m,27,59.9843250478,Set,2017_12_20_2058,
"[2.7, 2.7]",3,0,10,10,8,,,,,12,0,12,0,down,1.15881069796,LZ,m,27,59.9843250478,Set,2017_12_20_2058,
"[2.7, 2.7]",3,0,10,10,8,,,,,13,0,13,0,down,0.4088724748,LZ,m,27,59.9843250478,Set,2017_12_20_2058,
"[2.8, 2.8]",1,0,11,11,12,,,,,0,0,0,0,right,0.442118596984,LZ,m,27,59.9843250478,Set,2017_12_20_2058,
"[2.8, 2.8]",1,0,11,11,12,,,,,1,0,1,0,right,0.525440548779,LZ,m,27,59.9843250478,Set,2017_12_20_2058,
"[2.8, 2.8]",1,0,11,11,12,,,,,2,0,2,0,right,0.258785118931,LZ,m,27,59.9843250478,Set,2017_12_20_2058,
"[2.8, 2.8]",1,0,11,11,12,,,,,3,0,3,0,left,0.292119268095,LZ,m,27,59.9843250478,Set,2017_12_20_2058,
"[2.8, 2.8]",1,0,11,11,12,,,,,4,0,4,0,right,0.292229005601,LZ,m,27,59.9843250478,Set,2017_12_20_2058,
"[2.8, 2.8]",1,0,11,11,12,,,,,5,0,5,0,right,0.442199913319,LZ,m,27,59.9843250478,Set,2017_12_20_2058,
"[2.8, 2.8]",1,0,11,11,12,,,,,6,0,6,0,right,0.142112044268,LZ,m,27,59.9843250478,Set,2017_12_20_2058,
"[2.8, 2.8]",1,0,11,11,12,,,,,7,0,7,0,right,0.442134781391,LZ,m,27,59.9843250478,Set,2017_12_20_2058,
"[2.8, 2.8]",1,0,11,11,12,,,,,8,0,8,0,left,0.292142162914,LZ,m,27,59.9843250478,Set,2017_12_20_2058,
"[2.8, 2.8]",1,0,11,11,12,,,,,9,0,9,0,right,0.142139281379,LZ,m,27,59.9843250478,Set,2017_12_20_2058,
"[2.8, 2.8]",1,0,11,11,12,,,,,10,0,10,0,left,0.642108096974,LZ,m,27,59.9843250478,Set,2017_12_20_2058,
"[2.8, 2.8]",1,0,11,11,12,,,,,11,0,11,0,right,0.108785000513,LZ,m,27,59.9843250478,Set,2017_12_20_2058,
"[2.8, 2.8]",1,0,11,11,12,,,,,12,0,12,0,right,0.342131544487,LZ,m,27,59.9843250478,Set,2017_12_20_2058,
"[2.8, 2.8]",1,0,11,11,12,,,,,13,0,13,0,right,0.225467548822,LZ,m,27,59.9843250478,Set,2017_12_20_2058,
"[2.8, 2.8]",1,0,11,11,12,,,,,14,0,14,0,down,1.14207691257,LZ,m,27,59.9843250478,Set,2017_12_20_2058,
"[2.8, 2.8]",1,0,11,11,12,,,,,15,0,15,0,down,0.492118241731,LZ,m,27,59.9843250478,Set,2017_12_20_2058,
"[3.0, 3.0]",4,0,12,12,27,,,,,0,0,0,0,right,0.49211666279,LZ,m,27,59.9843250478,Set,2017_12_20_2058,
"[3.0, 3.0]",4,0,12,12,27,,,,,1,0,1,0,down,1.02545396984,LZ,m,27,59.9843250478,Set,2017_12_20_2058,
"[3.0, 3.0]",4,0,12,12,27,,,,,2,0,2,0,right,0.408761553001,LZ,m,27,59.9843250478,Set,2017_12_20_2058,
"[3.0, 3.0]",4,0,12,12,27,,,,,3,0,3,0,right,0.358630854869,LZ,m,27,59.9843250478,Set,2017_12_20_2058,
"[3.0, 3.0]",4,0,12,12,27,,,,,4,0,4,0,right,0.275449430337,LZ,m,27,59.9843250478,Set,2017_12_20_2058,
"[3.0, 3.0]",4,0,12,12,27,,,,,5,0,5,0,right,0.292140978738,LZ,m,27,59.9843250478,Set,2017_12_20_2058,
"[3.0, 3.0]",4,0,12,12,27,,,,,6,0,6,0,right,0.17543908814,LZ,m,27,59.9843250478,Set,2017_12_20_2058,
"[3.0, 3.0]",4,0,12,12,27,,,,,7,0,7,0,down,0.525447654072,LZ,m,27,59.9843250478,Set,2017_12_20_2058,
"[3.0, 3.0]",4,0,12,12,27,,,,,8,0,8,0,right,0.125426811865,LZ,m,27,59.9843250478,Set,2017_12_20_2058,
"[3.0, 3.0]",4,0,12,12,27,,,,,9,0,9,0,down,0.558869435336,LZ,m,27,59.9843250478,Set,2017_12_20_2058,
"[3.0, 3.0]",4,0,12,12,27,,,,,10,0,10,0,right,0.216912365519,LZ,m,27,59.9843250478,Set,2017_12_20_2058,
"[3.0, 3.0]",4,0,12,12,27,,,,,11,0,11,0,down,0.592132136575,LZ,m,27,59.9843250478,Set,2017_12_20_2058,
"[3.0, 3.0]",4,0,12,12,27,,,,,12,0,12,0,down,0.508778210962,LZ,m,27,59.9843250478,Set,2017_12_20_2058,
"[2.6, 2.6]",4,0,13,13,3,,,,,0,0,0,0,right,0.975479588495,LZ,m,27,59.9843250478,Set,2017_12_20_2058,
"[2.6, 2.6]",4,0,13,13,3,,,,,1,0,1,0,right,0.316885602195,LZ,m,27,59.9843250478,Set,2017_12_20_2058,
"[2.6, 2.6]",4,0,13,13,3,,,,,2,0,2,0,right,0.258784724167,LZ,m,27,59.9843250478,Set,2017_12_20_2058,
"[2.6, 2.6]",4,0,13,13,3,,,,,3,0,3,0,right,0.142125070677,LZ,m,27,59.9843250478,Set,2017_12_20_2058,
"[2.6, 2.6]",4,0,13,13,3,,,,,4,0,4,0,right,0.15877240838,LZ,m,27,59.9843250478,Set,2017_12_20_2058,
"[2.6, 2.6]",4,0,13,13,3,,,,,5,0,5,0,right,0.108792105922,LZ,m,27,59.9843250478,Set,2017_12_20_2058,
"[2.6, 2.6]",4,0,13,13,3,,,,,6,0,6,0,right,0.0921210838715,LZ,m,27,59.9843250478,Set,2017_12_20_2058,
"[2.6, 2.6]",4,0,13,13,3,,,,,7,0,7,0,right,0.0921345050447,LZ,m,27,59.9843250478,Set,2017_12_20_2058,
"[2.6, 2.6]",4,0,13,13,3,,,,,8,0,8,0,right,0.0421178864781,LZ,m,27,59.9843250478,Set,2017_12_20_2058,
"[2.6, 2.6]",4,0,13,13,3,,,,,9,0,9,0,right,0.0920962153468,LZ,m,27,59.9843250478,Set,2017_12_20_2058,
"[2.6, 2.6]",4,0,13,13,3,,,,,10,0,10,0,right,0.0587968033506,LZ,m,27,59.9843250478,Set,2017_12_20_2058,
"[2.6, 2.6]",4,0,13,13,3,,,,,11,0,11,0,right,0.10879723751,LZ,m,27,59.9843250478,Set,2017_12_20_2058,
"[2.6, 2.6]",4,0,13,13,3,,,,,12,0,12,0,right,0.0754551935242,LZ,m,27,59.9843250478,Set,2017_12_20_2058,
"[2.6, 2.6]",4,0,13,13,3,,,,,13,0,13,0,right,0.092133320868,LZ,m,27,59.9843250478,Set,2017_12_20_2058,
"[2.6, 2.6]",4,0,13,13,3,,,,,14,0,14,0,right,0.0921317418106,LZ,m,27,59.9843250478,Set,2017_12_20_2058,
"[2.6, 2.6]",4,0,13,13,3,,,,,15,0,15,0,right,0.0588785142172,LZ,m,27,59.9843250478,Set,2017_12_20_2058,
"[2.6, 2.6]",4,0,13,13,3,,,,,16,0,16,0,right,0.0421467025299,LZ,m,27,59.9843250478,Set,2017_12_20_2058,
"[2.6, 2.6]",4,0,13,13,3,,,,,17,0,17,0,right,0.0421542024706,LZ,m,27,59.9843250478,Set,2017_12_20_2058,
"[2.6, 2.6]",4,0,13,13,3,,,,,18,0,18,0,right,0.0588311456377,LZ,m,27,59.9843250478,Set,2017_12_20_2058,
"[2.6, 2.6]",4,0,13,13,3,,,,,19,0,19,0,right,0.058816145407,LZ,m,27,59.9843250478,Set,2017_12_20_2058,
"[2.6, 2.6]",4,0,13,13,3,,,,,20,0,20,0,right,0.0755211149808,LZ,m,27,59.9843250478,Set,2017_12_20_2058,
"[2.6, 2.6]",4,0,13,13,3,,,,,21,0,21,0,right,0.0921431892784,LZ,m,27,59.9843250478,Set,2017_12_20_2058,
"[2.6, 2.6]",4,0,13,13,3,,,,,22,0,22,0,right,0.108803553274,LZ,m,27,59.9843250478,Set,2017_12_20_2058,
"[2.6, 2.6]",4,0,13,13,3,,,,,23,0,23,0,right,0.108782632044,LZ,m,27,59.9843250478,Set,2017_12_20_2058,
"[2.6, 2.6]",4,0,13,13,3,,,,,24,0,24,0,right,0.375457798829,LZ,m,27,59.9843250478,Set,2017_12_20_2058,
"[2.6, 2.6]",4,0,13,13,3,,,,,25,0,25,0,down,1.86687774688,LZ,m,27,59.9843250478,Set,2017_12_20_2058,
"[2.6, 2.6]",4,0,13,13,3,,,,,26,0,26,0,right,0.0587758820038,LZ,m,27,59.9843250478,Set,2017_12_20_2058,
"[2.6, 2.6]",4,0,13,13,3,,,,,27,0,27,0,left,0.392130794469,LZ,m,27,59.9843250478,Set,2017_12_20_2058,
"[2.6, 2.6]",4,0,13,13,3,,,,,28,0,28,0,right,0.0587896979414,LZ,m,27,59.9843250478,Set,2017_12_20_2058,
"[2.6, 2.6]",4,0,13,13,3,,,,,29,0,29,0,right,0.242120018112,LZ,m,27,59.9843250478,Set,2017_12_20_2058,
"[2.6, 2.6]",4,0,13,13,3,,,,,30,0,30,0,right,0.242138965637,LZ,m,27,59.9843250478,Set,2017_12_20_2058,
"[2.6, 2.6]",4,0,13,13,3,,,,,31,0,31,0,right,0.108799211099,LZ,m,27,59.9843250478,Set,2017_12_20_2058,
"[2.6, 2.6]",4,0,13,13,3,,,,,32,0,32,0,right,0.242130281287,LZ,m,27,59.9843250478,Set,2017_12_20_2058,
"[2.6, 2.6]",4,0,13,13,3,,,,,33,0,33,0,right,0.0754847989883,LZ,m,27,59.9843250478,Set,2017_12_20_2058,
"[2.6, 2.6]",4,0,13,13,3,,,,,34,0,34,0,right,0.0754780883435,LZ,m,27,59.9843250478,Set,2017_12_20_2058,
"[2.6, 2.6]",4,0,13,13,3,,,,,35,0,35,0,right,0.0588860142743,LZ,m,27,59.9843250478,Set,2017_12_20_2058,
"[2.6, 2.6]",4,0,13,13,3,,,,,36,0,36,0,right,0.0421435446478,LZ,m,27,59.9843250478,Set,2017_12_20_2058,
"[2.6, 2.6]",4,0,13,13,3,,,,,37,0,37,0,right,0.0421060443623,LZ,m,27,59.9843250478,Set,2017_12_20_2058,
"[2.6, 2.6]",4,0,13,13,3,,,,,38,0,38,0,right,0.0754812462255,LZ,m,27,59.9843250478,Set,2017_12_20_2058,
"[2.6, 2.6]",4,0,13,13,3,,,,,39,0,39,0,right,0.0421447287081,LZ,m,27,59.9843250478,Set,2017_12_20_2058,
"[2.6, 2.6]",4,0,13,13,3,,,,,40,0,40,0,right,0.158808329608,LZ,m,27,59.9843250478,Set,2017_12_20_2058,
"[2.6, 2.6]",4,0,13,13,3,,,,,41,0,41,0,left,0.375479509472,LZ,m,27,59.9843250478,Set,2017_12_20_2058,
"[2.6, 2.6]",4,0,13,13,3,,,,,42,0,42,0,down,0.542169991997,LZ,m,27,59.9843250478,Set,2017_12_20_2058,
"[2.6, 2.6]",4,0,13,13,3,,,,,43,0,43,0,right,0.408794316463,LZ,m,27,59.9843250478,Set,2017_12_20_2058,
"[2.6, 2.6]",4,0,13,13,3,,,,,44,0,44,0,down,0.658747539739,LZ,m,27,59.9843250478,Set,2017_12_20_2058,
"[2.6, 2.6]",4,0,13,13,3,,,,,45,0,45,0,right,0.258798540104,LZ,m,27,59.9843250478,Set,2017_12_20_2058,
"[2.6, 2.6]",4,0,13,13,3,,,,,46,0,46,0,left,0.458788829506,LZ,m,27,59.9843250478,Set,2017_12_20_2058,
"[2.6, 2.6]",4,0,13,13,3,,,,,47,0,47,0,right,0.0921293734573,LZ,m,27,59.9843250478,Set,2017_12_20_2058,
"[2.6, 2.6]",4,0,13,13,3,,,,,48,0,48,0,left,0.0421257812995,LZ,m,27,59.9843250478,Set,2017_12_20_2058,
"[2.6, 2.6]",4,0,13,13,3,,,,,49,0,49,0,right,0.26689779968,LZ,m,27,59.9843250478,Set,2017_12_20_2058,
"[2.6, 2.6]",4,0,13,13,3,,,,,50,0,50,0,right,0.30880489538,LZ,m,27,59.9843250478,Set,2017_12_20_2058,
"[2.6, 2.6]",4,0,13,13,3,,,,,51,0,51,0,right,0.242153965635,LZ,m,27,59.9843250478,Set,2017_12_20_2058,
"[2.6, 2.6]",4,0,13,13,3,,,,,52,0,52,0,right,0.342132728663,LZ,m,27,59.9843250478,Set,2017_12_20_2058,
"[2.6, 2.6]",4,0,13,13,3,,,,,53,0,53,0,right,0.358788355836,LZ,m,27,59.9843250478,Set,2017_12_20_2058,
"[2.6, 2.6]",4,0,13,13,3,,,,,54,0,54,0,left,0.525429890724,LZ,m,27,59.9843250478,Set,2017_12_20_2058,
"[2.6, 2.6]",4,0,13,13,3,,,,,55,0,55,0,right,0.342127597076,LZ,m,27,59.9843250478,Set,2017_12_20_2058,
"[2.6, 2.6]",4,0,13,13,3,,,,,56,0,56,0,left,0.525453969836,LZ,m,27,59.9843250478,Set,2017_12_20_2058,
"[2.6, 2.6]",4,0,13,13,3,,,,,57,0,57,0,right,0.608819342917,LZ,m,27,59.9843250478,Set,2017_12_20_2058,
"[2.6, 2.6]",4,0,13,13,3,,,,,58,0,58,0,right,0.492117452202,LZ,m,27,59.9843250478,Set,2017_12_20_2058,
"[2.6, 2.6]",4,0,13,13,3,,,,,59,0,59,0,down,0.858814013889,LZ,m,27,59.9843250478,Set,2017_12_20_2058,
"[2.6, 2.6]",4,0,13,13,3,,,,,60,0,60,0,right,0.492150610429,LZ,m,27,59.9843250478,Set,2017_12_20_2058,
"[2.6, 2.6]",4,0,13,13,3,,,,,61,0,61,0,left,0.442147412919,LZ,m,27,59.9843250478,Set,2017_12_20_2058,
"[2.6, 2.6]",4,0,13,13,3,,,,,62,0,62,0,right,0.108797237393,LZ,m,27,59.9843250478,Set,2017_12_20_2058,
"[2.6, 2.6]",4,0,13,13,3,,,,,63,0,63,0,left,0.0588319349336,LZ,m,27,59.9843250478,Set,2017_12_20_2058,
"[2.6, 2.6]",4,0,13,13,3,,,,,64,0,64,0,right,0.058816145407,LZ,m,27,59.9843250478,Set,2017_12_20_2058,
"[2.6, 2.6]",4,0,13,13,3,,,,,65,0,65,0,right,0.458790408447,LZ,m,27,59.9843250478,Set,2017_12_20_2058,
"[2.6, 2.6]",4,0,13,13,3,,,,,66,0,66,0,left,0.475484325201,LZ,m,27,59.9843250478,Set,2017_12_20_2058,
"[2.6, 2.6]",4,0,13,13,3,,,,,67,0,67,0,right,0.608803553274,LZ,m,27,59.9843250478,Set,2017_12_20_2058,
"[2.6, 2.6]",4,0,13,13,3,,,,,68,0,68,0,left,0.492146662902,LZ,m,27,59.9843250478,Set,2017_12_20_2058,
"[2.6, 2.6]",4,0,13,13,3,,,,,69,0,69,0,right,0.158807934844,LZ,m,27,59.9843250478,Set,2017_12_20_2058,
"[2.6, 2.6]",4,0,13,13,3,,,,,70,0,70,0,left,0.492134426138,LZ,m,27,59.9843250478,Set,2017_12_20_2058,
"[2.6, 2.6]",4,0,13,13,3,,,,,71,0,71,0,right,0.308798184851,LZ,m,27,59.9843250478,Set,2017_12_20_2058,
"[2.6, 2.6]",4,0,13,13,3,,,,,72,0,72,0,down,0.758839198272,LZ,m,27,59.9843250478,Set,2017_12_20_2058,
"[2.6, 2.6]",4,0,13,13,3,,,,,73,0,73,0,down,0.158817803371,LZ,m,27,59.9843250478,Set,2017_12_20_2058,
"[3.0, 3.0]",6,0,14,14,29,,,,,0,0,0,0,down,0.825454206672,LZ,m,27,59.9843250478,Set,2017_12_20_2058,
"[3.0, 3.0]",6,0,14,14,29,,,,,1,0,1,0,down,0.708844685112,LZ,m,27,59.9843250478,Set,2017_12_20_2058,
"[2.7, 2.7]",6,0,15,15,11,,,,,0,0,0,0,down,6.55873917136,LZ,m,27,59.9843250478,Set,2017_12_20_2058,
"[2.7, 2.7]",6,0,15,15,11,,,,,1,0,1,0,right,4.47525221854,LZ,m,27,59.9843250478,Set,2017_12_20_2058,
"[2.7, 2.7]",6,0,15,15,11,,,,,2,0,2,0,down,1.32543407497,LZ,m,27,59.9843250478,Set,2017_12_20_2058,
"[2.7, 2.7]",6,0,15,15,11,,,,,3,0,3,0,right,1.79210032057,LZ,m,27,59.9843250478,Set,2017_12_20_2058,
"[2.7, 2.7]",6,0,15,15,11,,,,,4,0,4,0,down,2.94209412322,LZ,m,27,59.9843250478,Set,2017_12_20_2058,
"[2.7, 2.7]",6,0,15,15,11,,,,,5,0,5,0,right,0.958768303157,LZ,m,27,59.9843250478,Set,2017_12_20_2058,
"[2.7, 2.7]",6,0,15,15,11,,,,,6,0,6,0,right,0.808768974151,LZ,m,27,59.9843250478,Set,2017_12_20_2058,
"[2.7, 2.7]",6,0,15,15,11,,,,,7,0,7,0,right,0.442096886341,LZ,m,27,59.9843250478,Set,2017_12_20_2058,
"[2.7, 2.7]",6,0,15,15,11,,,,,8,0,8,0,right,0.425440864521,LZ,m,27,59.9843250478,Set,2017_12_20_2058,
"[2.7, 2.7]",6,0,15,15,11,,,,,9,0,9,0,right,0.425450733048,LZ,m,27,59.9843250478,Set,2017_12_20_2058,
"[2.7, 2.7]",6,0,15,15,11,,,,,10,0,10,0,right,0.725435180357,LZ,m,27,59.9843250478,Set,2017_12_20_2058,
"[2.7, 2.7]",6,0,15,15,11,,,,,11,0,11,0,right,0.808780421619,LZ,m,27,59.9843250478,Set,2017_12_20_2058,
"[2.7, 2.7]",6,0,15,15,11,,,,,12,0,12,0,right,0.742115675937,LZ,m,27,59.9843250478,Set,2017_12_20_2058,
"[2.7, 2.7]",6,0,15,15,11,,,,,13,0,13,0,right,0.392083031125,LZ,m,27,59.9843250478,Set,2017_12_20_2058,
"[2.7, 2.7]",6,0,15,15,11,,,,,14,0,14,0,right,0.292122425977,LZ,m,27,59.9843250478,Set,2017_12_20_2058,
"[2.7, 2.7]",6,0,15,15,11,,,,,15,0,15,0,right,0.258788671577,LZ,m,27,59.9843250478,Set,2017_12_20_2058,
"[2.7, 2.7]",6,0,15,15,11,,,,,16,0,16,0,right,0.108791711042,LZ,m,27,59.9843250478,Set,2017_12_20_2058,
"[2.7, 2.7]",6,0,15,15,11,,,,,17,0,17,0,right,0.0754547987599,LZ,m,27,59.9843250478,Set,2017_12_20_2058,
"[2.7, 2.7]",6,0,15,15,11,,,,,18,0,18,0,right,0.0588074611733,LZ,m,27,59.9843250478,Set,2017_12_20_2058,
"[2.7, 2.7]",6,0,15,15,11,,,,,19,0,19,0,right,0.0754761147546,LZ,m,27,59.9843250478,Set,2017_12_20_2058,
"[2.7, 2.7]",6,0,15,15,11,,,,,20,0,20,0,right,0.0588749616873,LZ,m,27,59.9843250478,Set,2017_12_20_2058,
"[2.7, 2.7]",6,0,15,15,11,,,,,21,0,21,0,right,0.0921270049876,LZ,m,27,59.9843250478,Set,2017_12_20_2058,
"[2.7, 2.7]",6,0,15,15,11,,,,,22,0,22,0,right,0.125470627798,LZ,m,27,59.9843250478,Set,2017_12_20_2058,
"[2.7, 2.7]",6,0,15,15,11,,,,,23,0,23,0,right,0.125297732069,LZ,m,27,59.9843250478,Set,2017_12_20_2058,
"[2.7, 2.7]",6,0,15,15,11,,,,,24,0,24,0,right,0.075457561994,LZ,m,27,59.9843250478,Set,2017_12_20_2058,
"[2.7, 2.7]",6,0,15,15,11,,,,,25,0,25,0,right,0.292141373502,LZ,m,27,59.9843250478,Set,2017_12_20_2058,
"[2.7, 2.7]",6,0,15,15,11,,,,,26,0,26,0,right,0.225450180355,LZ,m,27,59.9843250478,Set,2017_12_20_2058,
"[2.7, 2.7]",6,0,15,15,11,,,,,27,0,27,0,right,0.35861782846,LZ,m,27,59.9843250478,Set,2017_12_20_2058,
"[2.7, 2.7]",6,0,15,15,11,,,,,28,0,28,0,right,0.142126649735,LZ,m,27,59.9843250478,Set,2017_12_20_2058,
"[2.7, 2.7]",6,0,15,15,11,,,,,29,0,29,0,left,0.342156413011,LZ,m,27,59.9843250478,Set,2017_12_20_2058,
"[2.7, 2.7]",6,0,15,15,11,,,,,30,0,30,0,right,0.0254409435438,LZ,m,27,59.9843250478,Set,2017_12_20_2058,
"[2.7, 2.7]",6,0,15,15,11,,,,,31,0,31,0,right,0.125459575094,LZ,m,27,59.9843250478,Set,2017_12_20_2058,
"[2.7, 2.7]",6,0,15,15,11,,,,,32,0,32,0,left,0.108771184692,LZ,m,27,59.9843250478,Set,2017_12_20_2058,
"[2.7, 2.7]",6,0,15,15,11,,,,,33,0,33,0,right,0.175492377952,LZ,m,27,59.9843250478,Set,2017_12_20_2058,
"[2.7, 2.7]",6,0,15,15,11,,,,,34,0,34,0,right,0.242099491647,LZ,m,27,59.9843250478,Set,2017_12_20_2058,
"[2.7, 2.7]",6,0,15,15,11,,,,,35,0,35,0,left,0.042160518351,LZ,m,27,59.9843250478,Set,2017_12_20_2058,
"[2.7, 2.7]",6,0,15,15,11,,,,,36,0,36,0,right,0.275463246275,LZ,m,27,59.9843250478,Set,2017_12_20_2058,
"[2.7, 2.7]",6,0,15,15,11,,,,,37,0,37,0,right,0.308800553204,LZ,m,27,59.9843250478,Set,2017_12_20_2058,
"[2.7, 2.7]",6,0,15,15,11,,,,,38,0,38,0,left,0.175449746195,LZ,m,27,59.9843250478,Set,2017_12_20_2058,
"[2.7, 2.7]",6,0,15,15,11,,,,,39,0,39,0,right,0.0421261759475,LZ,m,27,59.9843250478,Set,2017_12_20_2058,
"[2.7, 2.7]",6,0,15,15,11,,,,,40,0,40,0,right,0.0754705882864,LZ,m,27,59.9843250478,Set,2017_12_20_2058,
"[2.7, 2.7]",6,0,15,15,11,,,,,41,0,41,0,right,0.0587999611162,LZ,m,27,59.9843250478,Set,2017_12_20_2058,
"[2.7, 2.7]",6,0,15,15,11,,,,,42,0,42,0,right,0.0587960137054,LZ,m,27,59.9843250478,Set,2017_12_20_2058,
"[2.7, 2.7]",6,0,15,15,11,,,,,43,0,43,0,right,0.0588169349357,LZ,m,27,59.9843250478,Set,2017_12_20_2058,
"[2.7, 2.7]",6,0,15,15,11,,,,,44,0,44,0,right,0.000277501763776,LZ,m,27,59.9843250478,Set,2017_12_20_2058,
"[2.7, 2.7]",6,0,15,15,11,,,,,45,0,45,0,right,0.0587983821752,LZ,m,27,59.9843250478,Set,2017_12_20_2058,
"[2.7, 2.7]",6,0,15,15,11,,,,,46,0,46,0,right,0.0421478865901,LZ,m,27,59.9843250478,Set,2017_12_20_2058,
"[2.7, 2.7]",6,0,15,15,11,,,,,47,0,47,0,right,0.0421348602977,LZ,m,27,59.9843250478,Set,2017_12_20_2058,
"[2.7, 2.7]",6,0,15,15,11,,,,,48,0,48,0,right,0.075509667513,LZ,m,27,59.9843250478,Set,2017_12_20_2058,
"[2.7, 2.7]",6,0,15,15,11,,,,,49,0,49,0,right,0.0254314697813,LZ,m,27,59.9843250478,Set,2017_12_20_2058,
"[2.7, 2.7]",6,0,15,15,11,,,,,50,0,50,0,right,0.0254642331274,LZ,m,27,59.9843250478,Set,2017_12_20_2058,
"[2.7, 2.7]",6,0,15,15,11,,,,,51,0,51,0,right,0.0921684525674,LZ,m,27,59.9843250478,Set,2017_12_20_2058,
"[2.7, 2.7]",6,0,15,15,11,,,,,52,0,52,0,right,2.65872109227,LZ,m,27,59.9843250478,Set,2017_12_20_2058,
"[2.7, 2.7]",6,0,15,15,11,,,,,53,0,53,0,right,0.175448561902,LZ,m,27,59.9843250478,Set,2017_12_20_2058,
"[2.7, 2.7]",6,0,15,15,11,,,,,54,0,54,0,right,2.35875835561,LZ,m,27,59.9843250478,Set,2017_12_20_2058,
"[2.7, 2.7]",6,0,15,15,11,,,,,55,0,55,0,left,0.42544796993,LZ,m,27,59.9843250478,Set,2017_12_20_2058,
"[2.7, 2.7]",6,0,15,15,11,,,,,56,0,56,0,right,0.20880363218,LZ,m,27,59.9843250478,Set,2017_12_20_2058,
"[2.7, 2.7]",6,0,15,15,11,,,,,57,0,57,0,right,1.15879925061,LZ,m,27,59.9843250478,Set,2017_12_20_2058,
"[2.7, 2.7]",6,0,15,15,11,,,,,58,0,58,0,right,0.575425193412,LZ,m,27,59.9843250478,Set,2017_12_20_2058,
"[2.7, 2.7]",6,0,15,15,11,,,,,59,0,59,0,left,0.408778132056,LZ,m,27,59.9843250478,Set,2017_12_20_2058,
"[2.7, 2.7]",6,0,15,15,11,,,,,60,0,60,0,right,0.29211729439,LZ,m,27,59.9843250478,Set,2017_12_20_2058,
"[2.7, 2.7]",6,0,15,15,11,,,,,61,0,61,0,right,0.225512549165,LZ,m,27,59.9843250478,Set,2017_12_20_2058,
"[2.7, 2.7]",6,0,15,15,11,,,,,62,0,62,0,left,0.392129215528,LZ,m,27,59.9843250478,Set,2017_12_20_2058,
"[2.7, 2.7]",6,0,15,15,11,,,,,63,0,63,0,right,0.125455233036,LZ,m,27,59.9843250478,Set,2017_12_20_2058,
"[2.7, 2.7]",6,0,15,15,11,,,,,64,0,64,0,right,0.308781211032,LZ,m,27,59.9843250478,Set,2017_12_20_2058,
"[2.7, 2.7]",6,0,15,15,11,,,,,65,0,65,0,right,0.492105215322,LZ,m,27,59.9843250478,Set,2017_12_20_2058,
"[2.7, 2.7]",6,0,15,15,11,,,,,66,0,66,0,down,0.0586748288479,LZ,m,27,59.9843250478,Set,2017_12_20_2058,
"[2.7, 2.7]",6,0,15,15,11,,,,,67,0,67,0,right,0.275449430337,LZ,m,27,59.9843250478,Set,2017_12_20_2058,
"[2.7, 2.7]",6,0,15,15,11,,,,,68,0,68,0,right,0.608867106261,LZ,m,27,59.9843250478,Set,2017_12_20_2058,
"[2.7, 2.7]",6,0,15,15,11,,,,,69,0,69,0,left,0.642127833911,LZ,m,27,59.9843250478,Set,2017_12_20_2058,
"[2.7, 2.7]",6,0,15,15,11,,,,,70,0,70,0,left,0.392115794471,LZ,m,27,59.9843250478,Set,2017_12_20_2058,
"[2.7, 2.7]",6,0,15,15,11,,,,,71,0,71,0,right,0.208782316302,LZ,m,27,59.9843250478,Set,2017_12_20_2058,
"[2.7, 2.7]",6,0,15,15,11,,,,,72,0,72,0,right,0.492117846967,LZ,m,27,59.9843250478,Set,2017_12_20_2058,
"[2.7, 2.7]",6,0,15,15,11,,,,,73,0,73,0,left,0.508756105672,LZ,m,27,59.9843250478,Set,2017_12_20_2058,
"[2.7, 2.7]",6,0,15,15,11,,,,,74,0,74,0,right,0.225455706706,LZ,m,27,59.9843250478,Set,2017_12_20_2058,
"[2.7, 2.7]",6,0,15,15,11,,,,,75,0,75,0,right,0.242118439055,LZ,m,27,59.9843250478,Set,2017_12_20_2058,
"[2.7, 2.7]",6,0,15,15,11,,,,,76,0,76,0,right,0.208824948175,LZ,m,27,59.9843250478,Set,2017_12_20_2058,
"[2.7, 2.7]",6,0,15,15,11,,,,,77,0,77,0,left,0.842133123428,LZ,m,27,59.9843250478,Set,2017_12_20_2058,
"[2.7, 2.7]",6,0,15,15,11,,,,,78,0,78,0,right,0.192153531476,LZ,m,27,59.9843250478,Set,2017_12_20_2058,
"[2.7, 2.7]",6,0,15,15,11,,,,,79,0,79,0,right,0.275447061867,LZ,m,27,59.9843250478,Set,2017_12_20_2058,
"[2.7, 2.7]",6,0,15,15,11,,,,,80,0,80,0,right,0.292116504861,LZ,m,27,59.9843250478,Set,2017_12_20_2058,
"[2.7, 2.7]",6,0,15,15,11,,,,,81,0,81,0,right,0.74213975505,LZ,m,27,59.9843250478,Set,2017_12_20_2058,
"[2.7, 2.7]",6,0,15,15,11,,,,,82,0,82,0,right,0.12544102245,LZ,m,27,59.9843250478,Set,2017_12_20_2058,
"[2.7, 2.7]",6,0,15,15,11,,,,,83,0,83,0,left,0.425487443688,LZ,m,27,59.9843250478,Set,2017_12_20_2058,
"[2.7, 2.7]",6,0,15,15,11,,,,,84,0,84,0,down,0.408793526934,LZ,m,27,59.9843250478,Set,2017_12_20_2058,
"[2.7, 2.7]",6,0,15,15,11,,,,,85,0,85,0,right,0.392127241823,LZ,m,27,59.9843250478,Set,2017_12_20_2058,
"[2.7, 2.7]",6,0,15,15,11,,,,,86,0,86,0,right,0.458782118978,LZ,m,27,59.9843250478,Set,2017_12_20_2058,
"[2.7, 2.7]",6,0,15,15,11,,,,,87,0,87,0,down,0.075455983053,LZ,m,27,59.9843250478,Set,2017_12_20_2058,
"[2.7, 2.7]",6,0,15,15,11,,,,,88,0,88,0,down,0.0754678251687,LZ,m,27,59.9843250478,Set,2017_12_20_2058,
"[2.7, 2.7]",1,0,16,16,6,,,,,0,0,0,0,down,1.15872701339,LZ,m,27,59.9843250478,Set,2017_12_20_2058,
"[2.7, 2.7]",1,0,16,16,6,,,,,1,0,1,0,right,0.692119583953,LZ,m,27,59.9843250478,Set,2017_12_20_2058,
"[2.7, 2.7]",1,0,16,16,6,,,,,2,0,2,0,left,0.542122228653,LZ,m,27,59.9843250478,Set,2017_12_20_2058,
"[2.7, 2.7]",1,0,16,16,6,,,,,3,0,3,0,right,0.108788158512,LZ,m,27,59.9843250478,Set,2017_12_20_2058,
"[2.7, 2.7]",1,0,16,16,6,,,,,4,0,4,0,down,1.27546482522,LZ,m,27,59.9843250478,Set,2017_12_20_2058,
"[2.7, 2.7]",1,0,16,16,6,,,,,5,0,5,0,right,0.658807934844,LZ,m,27,59.9843250478,Set,2017_12_20_2058,
"[2.7, 2.7]",1,0,16,16,6,,,,,6,0,6,0,right,0.325449469849,LZ,m,27,59.9843250478,Set,2017_12_20_2058,
"[2.7, 2.7]",1,0,16,16,6,,,,,7,0,7,0,down,0.425462575164,LZ,m,27,59.9843250478,Set,2017_12_20_2058,
"[2.7, 2.7]",1,0,16,16,6,,,,,8,0,8,0,down,0.275436798693,LZ,m,27,59.9843250478,Set,2017_12_20_2058,
"[3.0, 3.0]",1,0,17,17,24,,,,,0,0,0,0,right,0.692107346957,LZ,m,27,59.9843250478,Set,2017_12_20_2058,
"[3.0, 3.0]",1,0,17,17,24,,,,,1,0,1,0,right,0.408776947879,LZ,m,27,59.9843250478,Set,2017_12_20_2058,
"[3.0, 3.0]",1,0,17,17,24,,,,,2,0,2,0,left,0.425429811818,LZ,m,27,59.9843250478,Set,2017_12_20_2058,
"[3.0, 3.0]",1,0,17,17,24,,,,,3,0,3,0,right,0.192128268187,LZ,m,27,59.9843250478,Set,2017_12_20_2058,
"[3.0, 3.0]",1,0,17,17,24,,,,,4,0,4,0,right,0.308769763564,LZ,m,27,59.9843250478,Set,2017_12_20_2058,
"[3.0, 3.0]",1,0,17,17,24,,,,,5,0,5,0,right,0.292109399568,LZ,m,27,59.9843250478,Set,2017_12_20_2058,
"[3.0, 3.0]",1,0,17,17,24,,,,,6,0,6,0,right,0.475494588609,LZ,m,27,59.9843250478,Set,2017_12_20_2058,
"[3.0, 3.0]",1,0,17,17,24,,,,,7,0,7,0,right,0.325306968996,LZ,m,27,59.9843250478,Set,2017_12_20_2058,
"[3.0, 3.0]",1,0,17,17,24,,,,,8,0,8,0,right,0.358827040298,LZ,m,27,59.9843250478,Set,2017_12_20_2058,
"[3.0, 3.0]",1,0,17,17,24,,,,,9,0,9,0,right,0.675452904077,LZ,m,27,59.9843250478,Set,2017_12_20_2058,
"[3.0, 3.0]",1,0,17,17,24,,,,,10,0,10,0,right,0.275448246044,LZ,m,27,59.9843250478,Set,2017_12_20_2058,
"[3.0, 3.0]",1,0,17,17,24,,,,,11,0,11,0,right,0.125507338555,LZ,m,27,59.9843250478,Set,2017_12_20_2058,
"[3.0, 3.0]",1,0,17,17,24,,,,,12,0,12,0,right,0.392236584681,LZ,m,27,59.9843250478,Set,2017_12_20_2058,
"[3.0, 3.0]",1,0,17,17,24,,,,,13,0,13,0,left,0.675488035893,LZ,m,27,59.9843250478,Set,2017_12_20_2058,
"[3.0, 3.0]",1,0,17,17,24,,,,,14,0,14,0,right,0.475452746148,LZ,m,27,59.9843250478,Set,2017_12_20_2058,
"[3.0, 3.0]",1,0,17,17,24,,,,,15,0,15,0,right,0.642124676029,LZ,m,27,59.9843250478,Set,2017_12_20_2058,
"[3.0, 3.0]",1,0,17,17,24,,,,,16,0,16,0,right,0.308807658614,LZ,m,27,59.9843250478,Set,2017_12_20_2058,
"[3.0, 3.0]",1,0,17,17,24,,,,,17,0,17,0,down,0.683583348058,LZ,m,27,59.9843250478,Set,2017_12_20_2058,
"[3.0, 3.0]",1,0,17,17,24,,,,,18,0,18,0,right,0.442123333924,LZ,m,27,59.9843250478,Set,2017_12_20_2058,
"[3.0, 3.0]",1,0,17,17,24,,,,,19,0,19,0,right,0.375457009301,LZ,m,27,59.9843250478,Set,2017_12_20_2058,
"[3.0, 3.0]",1,0,17,17,24,,,,,20,0,20,0,left,0.592145557748,LZ,m,27,59.9843250478,Set,2017_12_20_2058,
"[3.0, 3.0]",1,0,17,17,24,,,,,21,0,21,0,right,0.325461706729,LZ,m,27,59.9843250478,Set,2017_12_20_2058,
"[3.0, 3.0]",1,0,17,17,24,,,,,22,0,22,0,left,0.275438377634,LZ,m,27,59.9843250478,Set,2017_12_20_2058,
"[3.0, 3.0]",1,0,17,17,24,,,,,23,0,23,0,right,0.475469325203,LZ,m,27,59.9843250478,Set,2017_12_20_2058,
"[3.0, 3.0]",1,0,17,17,24,,,,,24,0,24,0,down,1.04214038665,LZ,m,27,59.9843250478,Set,2017_12_20_2058,
"[3.0, 3.0]",1,0,17,17,24,,,,,25,0,25,0,right,0.133587255841,LZ,m,27,59.9843250478,Set,2017_12_20_2058,
"[3.0, 3.0]",1,0,17,17,24,,,,,26,0,26,0,down,2.97544445656,LZ,m,27,59.9843250478,Set,2017_12_20_2058,
"[3.0, 3.0]",1,0,17,17,24,,,,,27,0,27,0,right,0.292123610154,LZ,m,27,59.9843250478,Set,2017_12_20_2058,
"[3.0, 3.0]",1,0,17,17,24,,,,,28,0,28,0,right,0.558655881323,LZ,m,27,59.9843250478,Set,2017_12_20_2058,
"[3.0, 3.0]",1,0,17,17,24,,,,,29,0,29,0,right,0.575540062506,LZ,m,27,59.9843250478,Set,2017_12_20_2058,
"[3.0, 3.0]",1,0,17,17,24,,,,,30,0,30,0,down,0.825442364556,LZ,m,27,59.9843250478,Set,2017_12_20_2058,
"[3.0, 3.0]",1,0,17,17,24,,,,,31,0,31,0,down,1.05877232947,LZ,m,27,59.9843250478,Set,2017_12_20_2058,
"[3.0, 3.0]",1,0,17,17,24,,,,,32,0,32,0,right,0.475454325089,LZ,m,27,59.9843250478,Set,2017_12_20_2058,
"[3.0, 3.0]",1,0,17,17,24,,,,,33,0,33,0,down,0.625448522391,LZ,m,27,59.9843250478,Set,2017_12_20_2058,
"[3.0, 3.0]",1,0,17,17,24,,,,,34,0,34,0,right,0.77545653563,LZ,m,27,59.9843250478,Set,2017_12_20_2058,
"[3.0, 3.0]",1,0,17,17,24,,,,,35,0,35,0,down,0.342139044544,LZ,m,27,59.9843250478,Set,2017_12_20_2058,
"[3.0, 3.0]",1,0,17,17,24,,,,,36,0,36,0,down,1.40883379034,LZ,m,27,59.9843250478,Set,2017_12_20_2058,
"[3.0, 3.0]",1,0,17,17,24,,,,,37,0,37,0,left,1.59210253123,LZ,m,27,59.9843250478,Set,2017_12_20_2058,
"[3.0, 3.0]",1,0,17,17,24,,,,,38,0,38,0,right,0.375462535652,LZ,m,27,59.9843250478,Set,2017_12_20_2058,
"[3.0, 3.0]",1,0,17,17,24,,,,,39,0,39,0,right,0.492113110144,LZ,m,27,59.9843250478,Set,2017_12_20_2058,
"[3.0, 3.0]",1,0,17,17,24,,,,,40,0,40,0,right,0.342107860139,LZ,m,27,59.9843250478,Set,2017_12_20_2058,
"[3.0, 3.0]",1,0,17,17,24,,,,,41,0,41,0,down,0.158614118001,LZ,m,27,59.9843250478,Set,2017_12_20_2058,
"[3.0, 3.0]",1,0,17,17,24,,,,,42,0,42,0,right,0.300239448785,LZ,m,27,59.9843250478,Set,2017_12_20_2058,
"[3.0, 3.0]",1,0,17,17,24,,,,,43,0,43,0,down,0.1254264171,LZ,m,27,59.9843250478,Set,2017_12_20_2058,
"[3.0, 3.0]",1,0,17,17,24,,,,,44,0,44,0,right,0.342257071519,LZ,m,27,59.9843250478,Set,2017_12_20_2058,
"[3.0, 3.0]",1,0,17,17,24,,,,,45,0,45,0,right,0.342132334015,LZ,m,27,59.9843250478,Set,2017_12_20_2058,
"[3.0, 3.0]",1,0,17,17,24,,,,,46,0,46,0,right,0.442110702279,LZ,m,27,59.9843250478,Set,2017_12_20_2058,
"[3.0, 3.0]",1,0,17,17,24,,,,,47,0,47,0,right,0.292116899625,LZ,m,27,59.9843250478,Set,2017_12_20_2058,
"[3.0, 3.0]",1,0,17,17,24,,,,,48,0,48,0,right,0.142142834025,LZ,m,27,59.9843250478,Set,2017_12_20_2058,
"[3.0, 3.0]",1,0,17,17,24,,,,,49,0,49,0,right,0.125447338214,LZ,m,27,59.9843250478,Set,2017_12_20_2058,
"[3.0, 3.0]",1,0,17,17,24,,,,,50,0,50,0,right,0.0587652241811,LZ,m,27,59.9843250478,Set,2017_12_20_2058,
"[3.0, 3.0]",1,0,17,17,24,,,,,51,0,51,0,right,0.0587818032363,LZ,m,27,59.9843250478,Set,2017_12_20_2058,
"[3.0, 3.0]",1,0,17,17,24,,,,,52,0,52,0,right,0.0421522287652,LZ,m,27,59.9843250478,Set,2017_12_20_2058,
"[3.0, 3.0]",1,0,17,17,24,,,,,53,0,53,0,right,0.042133676121,LZ,m,27,59.9843250478,Set,2017_12_20_2058,
"[3.0, 3.0]",1,0,17,17,24,,,,,54,0,54,0,right,0.0421364392387,LZ,m,27,59.9843250478,Set,2017_12_20_2058,
"[3.0, 3.0]",1,0,17,17,24,,,,,55,0,55,0,right,0.0921171364607,LZ,m,27,59.9843250478,Set,2017_12_20_2058,
"[3.0, 3.0]",1,0,17,17,24,,,,,56,0,56,0,right,0.358784803189,LZ,m,27,59.9843250478,Set,2017_12_20_2058,
"[3.0, 3.0]",1,0,17,17,24,,,,,57,0,57,0,right,0.308788316324,LZ,m,27,59.9843250478,Set,2017_12_20_2058,
"[3.0, 3.0]",1,0,17,17,24,,,,,58,0,58,0,right,0.2587934084,LZ,m,27,59.9843250478,Set,2017_12_20_2058,
"[3.0, 3.0]",1,0,17,17,24,,,,,59,0,59,0,down,2.05876443465,LZ,m,27,59.9843250478,Set,2017_12_20_2058,
"[3.0, 3.0]",1,0,17,17,24,,,,,60,0,60,0,right,0.19209747843,LZ,m,27,59.9843250478,Set,2017_12_20_2058,
"[3.0, 3.0]",1,0,17,17,24,,,,,61,0,61,0,right,1.54212222865,LZ,m,27,59.9843250478,Set,2017_12_20_2058,
"[3.0, 3.0]",1,0,17,17,24,,,,,62,0,62,0,right,1.69213024189,LZ,m,27,59.9843250478,Set,2017_12_20_2058,
"[3.0, 3.0]",1,0,17,17,24,,,,,63,0,63,0,right,0.29214176815,LZ,m,27,59.9843250478,Set,2017_12_20_2058,
"[3.0, 3.0]",1,0,17,17,24,,,,,64,0,64,0,right,0.192114452249,LZ,m,27,59.9843250478,Set,2017_12_20_2058,
"[3.0, 3.0]",1,0,17,17,24,,,,,65,0,65,0,right,0.175436325022,LZ,m,27,59.9843250478,Set,2017_12_20_2058,
"[3.0, 3.0]",1,0,17,17,24,,,,,66,0,66,0,left,0.342103912728,LZ,m,27,59.9843250478,Set,2017_12_20_2058,
"[3.0, 3.0]",1,0,17,17,24,,,,,67,0,67,0,right,0.142116781324,LZ,m,27,59.9843250478,Set,2017_12_20_2058,
"[3.0, 3.0]",1,0,17,17,24,,,,,68,0,68,0,right,0.242167781456,LZ,m,27,59.9843250478,Set,2017_12_20_2058,
"[3.0, 3.0]",1,0,17,17,24,,,,,69,0,69,0,down,9.43427439779e-05,LZ,m,27,59.9843250478,Set,2017_12_20_2058,
"[3.0, 3.0]",1,0,17,17,24,,,,,70,0,70,0,right,0.383622190333,LZ,m,27,59.9843250478,Set,2017_12_20_2058,
"[3.0, 3.0]",1,0,17,17,24,,,,,71,0,71,0,left,0.575491904281,LZ,m,27,59.9843250478,Set,2017_12_20_2058,
"[3.0, 3.0]",1,0,17,17,24,,,,,72,0,72,0,right,0.292038741289,LZ,m,27,59.9843250478,Set,2017_12_20_2058,
"[3.0, 3.0]",1,0,17,17,24,,,,,73,0,73,0,right,0.392135531409,LZ,m,27,59.9843250478,Set,2017_12_20_2058,
"[3.0, 3.0]",1,0,17,17,24,,,,,74,0,74,0,right,0.225305705797,LZ,m,27,59.9843250478,Set,2017_12_20_2058,
"[3.0, 3.0]",1,0,17,17,24,,,,,75,0,75,0,right,0.175494351657,LZ,m,27,59.9843250478,Set,2017_12_20_2058,
"[3.0, 3.0]",1,0,17,17,24,,,,,76,0,76,0,down,0.225443864474,LZ,m,27,59.9843250478,Set,2017_12_20_2058,
"[3.0, 3.0]",1,0,17,17,24,,,,,77,0,77,0,right,0.000253027887084,LZ,m,27,59.9843250478,Set,2017_12_20_2058,
"[3.0, 3.0]",1,0,17,17,24,,,,,78,0,78,0,right,0.516911812825,LZ,m,27,59.9843250478,Set,2017_12_20_2058,
"[3.0, 3.0]",1,0,17,17,24,,,,,79,0,79,0,right,0.30865094706,LZ,m,27,59.9843250478,Set,2017_12_20_2058,
"[3.0, 3.0]",1,0,17,17,24,,,,,80,0,80,0,down,0.625464312034,LZ,m,27,59.9843250478,Set,2017_12_20_2058,
"[3.0, 3.0]",1,0,17,17,24,,,,,81,0,81,0,right,0.208786263713,LZ,m,27,59.9843250478,Set,2017_12_20_2058,
"[3.0, 3.0]",1,0,17,17,24,,,,,82,0,82,0,down,1.1754497462,LZ,m,27,59.9843250478,Set,2017_12_20_2058,
"[3.0, 3.0]",1,0,17,17,24,,,,,83,0,83,0,right,0.192095899605,LZ,m,27,59.9843250478,Set,2017_12_20_2058,
"[3.0, 3.0]",1,0,17,17,24,,,,,84,0,84,0,right,0.275433640811,LZ,m,27,59.9843250478,Set,2017_12_20_2058,
"[3.0, 3.0]",1,0,17,17,24,,,,,85,0,85,0,right,0.842137860367,LZ,m,27,59.9843250478,Set,2017_12_20_2058,
"[3.0, 3.0]",1,0,17,17,24,,,,,86,0,86,0,right,0.375455825124,LZ,m,27,59.9843250478,Set,2017_12_20_2058,
"[3.0, 3.0]",1,0,17,17,24,,,,,87,0,87,0,right,0.308777263621,LZ,m,27,59.9843250478,Set,2017_12_20_2058,
"[3.0, 3.0]",1,0,17,17,24,,,,,88,0,88,0,right,0.29214176815,LZ,m,27,59.9843250478,Set,2017_12_20_2058,
"[3.0, 3.0]",1,0,17,17,24,,,,,89,0,89,0,down,0.275457719807,LZ,m,27,59.9843250478,Set,2017_12_20_2058,
"[3.0, 3.0]",1,0,17,17,24,,,,,90,0,90,0,down,0.292128741858,LZ,m,27,59.9843250478,Set,2017_12_20_2058,
"[3.0, 3.0]",1,0,17,17,24,,,,,91,0,91,0,right,0.508781368961,LZ,m,27,59.9843250478,Set,2017_12_20_2058,
"[3.0, 3.0]",1,0,17,17,24,,,,,92,0,92,0,right,0.250256383093,LZ,m,27,59.9843250478,Set,2017_12_20_2058,
"[3.0, 3.0]",1,0,17,17,24,,,,,93,0,93,0,right,0.158782276907,LZ,m,27,59.9843250478,Set,2017_12_20_2058,
"[3.0, 3.0]",1,0,17,17,24,,,,,94,0,94,0,right,0.375447535655,LZ,m,27,59.9843250478,Set,2017_12_20_2058,
"[3.0, 3.0]",1,0,17,17,24,,,,,95,0,95,0,right,0.158776750439,LZ,m,27,59.9843250478,Set,2017_12_20_2058,
"[3.0, 3.0]",1,0,17,17,24,,,,,96,0,96,0,down,0.47545195662,LZ,m,27,59.9843250478,Set,2017_12_20_2058,
"[3.0, 3.0]",1,0,17,17,24,,,,,97,0,97,0,right,0.358782829484,LZ,m,27,59.9843250478,Set,2017_12_20_2058,
"[3.0, 3.0]",1,0,17,17,24,,,,,98,0,98,0,down,1.6421349392,LZ,m,27,59.9843250478,Set,2017_12_20_2058,
"[3.0, 3.0]",1,0,17,17,24,,,,,99,0,99,0,down,0.925474812044,LZ,m,27,59.9843250478,Set,2017_12_20_2058,
"[2.9, 2.9]",1,0,18,18,18,,,,,0,0,0,0,right,0.900281370035,LZ,m,27,59.9843250478,Set,2017_12_20_2058,
"[2.9, 2.9]",1,0,18,18,18,,,,,1,0,1,0,down,1.79211334698,LZ,m,27,59.9843250478,Set,2017_12_20_2058,
"[2.9, 2.9]",1,0,18,18,18,,,,,2,0,2,0,right,0.392171847401,LZ,m,27,59.9843250478,Set,2017_12_20_2058,
"[2.9, 2.9]",1,0,18,18,18,,,,,3,0,3,0,right,1.07543150918,LZ,m,27,59.9843250478,Set,2017_12_20_2058,
"[2.9, 2.9]",1,0,18,18,18,,,,,4,0,4,0,down,0.292109794333,LZ,m,27,59.9843250478,Set,2017_12_20_2058,
"[2.9, 2.9]",1,0,18,18,18,,,,,5,0,5,0,down,0.242104623234,LZ,m,27,59.9843250478,Set,2017_12_20_2058,
"[2.9, 2.9]",2,0,19,19,19,,,,,0,0,0,0,right,0.833570440067,LZ,m,27,59.9843250478,Set,2017_12_20_2058,
"[2.9, 2.9]",2,0,19,19,19,,,,,1,0,1,0,right,0.792086109985,LZ,m,27,59.9843250478,Set,2017_12_20_2058,
"[2.9, 2.9]",2,0,19,19,19,,,,,2,0,2,0,left,0.858757960843,LZ,m,27,59.9843250478,Set,2017_12_20_2058,
"[2.9, 2.9]",2,0,19,19,19,,,,,3,0,3,0,right,0.408782868995,LZ,m,27,59.9843250478,Set,2017_12_20_2058,
"[2.9, 2.9]",2,0,19,19,19,,,,,4,0,4,0,right,0.242088833707,LZ,m,27,59.9843250478,Set,2017_12_20_2058,
"[2.9, 2.9]",2,0,19,19,19,,,,,5,0,5,0,right,0.142132570734,LZ,m,27,59.9843250478,Set,2017_12_20_2058,
"[2.9, 2.9]",2,0,19,19,19,,,,,6,0,6,0,right,0.158842277247,LZ,m,27,59.9843250478,Set,2017_12_20_2058,
"[2.9, 2.9]",2,0,19,19,19,,,,,7,0,7,0,right,2.30877844791,LZ,m,27,59.9843250478,Set,2017_12_20_2058,
"[2.9, 2.9]",2,0,19,19,19,,,,,8,0,8,0,right,0.408788000583,LZ,m,27,59.9843250478,Set,2017_12_20_2058,
"[2.9, 2.9]",2,0,19,19,19,,,,,9,0,9,0,right,0.275463640923,LZ,m,27,59.9843250478,Set,2017_12_20_2058,
"[2.9, 2.9]",2,0,19,19,19,,,,,10,0,10,0,right,0.125418917043,LZ,m,27,59.9843250478,Set,2017_12_20_2058,
"[2.9, 2.9]",2,0,19,19,19,,,,,11,0,11,0,right,0.142137702438,LZ,m,27,59.9843250478,Set,2017_12_20_2058,
"[2.9, 2.9]",2,0,19,19,19,,,,,12,0,12,0,right,0.108823684976,LZ,m,27,59.9843250478,Set,2017_12_20_2058,
"[2.9, 2.9]",2,0,19,19,19,,,,,13,0,13,0,right,0.108775921515,LZ,m,27,59.9843250478,Set,2017_12_20_2058,
"[2.9, 2.9]",2,0,19,19,19,,,,,14,0,14,0,right,0.0587821980007,LZ,m,27,59.9843250478,Set,2017_12_20_2058,
"[2.9, 2.9]",2,0,19,19,19,,,,,15,0,15,0,left,0.0254823911237,LZ,m,27,59.9843250478,Set,2017_12_20_2058,
"[2.9, 2.9]",2,0,19,19,19,,,,,16,0,16,0,right,0.0754729568725,LZ,m,27,59.9843250478,Set,2017_12_20_2058,
"[2.9, 2.9]",2,0,19,19,19,,,,,17,0,17,0,right,0.608791316394,LZ,m,27,59.9843250478,Set,2017_12_20_2058,
"[2.9, 2.9]",2,0,19,19,19,,,,,18,0,18,0,left,0.292155978852,LZ,m,27,59.9843250478,Set,2017_12_20_2058,
"[2.9, 2.9]",2,0,19,19,19,,,,,19,0,19,0,left,0.308780026855,LZ,m,27,59.9843250478,Set,2017_12_20_2058,
"[2.9, 2.9]",2,0,19,19,19,,,,,20,0,20,0,right,0.00025815947447,LZ,m,27,59.9843250478,Set,2017_12_20_2058,
"[2.9, 2.9]",2,0,19,19,19,,,,,21,0,21,0,right,0.233567597927,LZ,m,27,59.9843250478,Set,2017_12_20_2058,
"[2.9, 2.9]",2,0,19,19,19,,,,,22,0,22,0,right,0.0754374302924,LZ,m,27,59.9843250478,Set,2017_12_20_2058,
"[2.9, 2.9]",2,0,19,19,19,,,,,23,0,23,0,right,0.325488549075,LZ,m,27,59.9843250478,Set,2017_12_20_2058,
"[2.9, 2.9]",2,0,19,19,19,,,,,24,0,24,0,right,0.283718822524,LZ,m,27,59.9843250478,Set,2017_12_20_2058,
"[2.9, 2.9]",2,0,19,19,19,,,,,25,0,25,0,right,0.250265462208,LZ,m,27,59.9843250478,Set,2017_12_20_2058,
"[2.9, 2.9]",2,0,19,19,19,,,,,26,0,26,0,right,0.17556382576,LZ,m,27,59.9843250478,Set,2017_12_20_2058,
"[2.9, 2.9]",2,0,19,19,19,,,,,27,0,27,0,right,0.258808408515,LZ,m,27,59.9843250478,Set,2017_12_20_2058,
"[2.9, 2.9]",2,0,19,19,19,,,,,28,0,28,0,right,0.175330929691,LZ,m,27,59.9843250478,Set,2017_12_20_2058,
"[2.9, 2.9]",2,0,19,19,19,,,,,29,0,29,0,right,0.0254946280038,LZ,m,27,59.9843250478,Set,2017_12_20_2058,
"[2.9, 2.9]",2,0,19,19,19,,,,,30,0,30,0,right,0.0254583118949,LZ,m,27,59.9843250478,Set,2017_12_20_2058,
"[2.9, 2.9]",2,0,19,19,19,,,,,31,0,31,0,right,0.616896891734,LZ,m,27,59.9843250478,Set,2017_12_20_2058,
"[2.9, 2.9]",2,0,19,19,19,,,,,32,0,32,0,right,0.1754576409,LZ,m,27,59.9843250478,Set,2017_12_20_2058,
"[2.9, 2.9]",2,0,19,19,19,,,,,33,0,33,0,left,0.225453733001,LZ,m,27,59.9843250478,Set,2017_12_20_2058,
"[2.9, 2.9]",2,0,19,19,19,,,,,34,0,34,0,right,0.358781250543,LZ,m,27,59.9843250478,Set,2017_12_20_2058,
"[2.9, 2.9]",2,0,19,19,19,,,,,35,0,35,0,right,0.308783184737,LZ,m,27,59.9843250478,Set,2017_12_20_2058,
"[2.9, 2.9]",2,0,19,19,19,,,,,36,0,36,0,down,1.6254504961,LZ,m,27,59.9843250478,Set,2017_12_20_2058,
"[2.9, 2.9]",2,0,19,19,19,,,,,37,0,37,0,right,0.225457285647,LZ,m,27,59.9843250478,Set,2017_12_20_2058,
"[2.9, 2.9]",2,0,19,19,19,,,,,38,0,38,0,right,0.242128307698,LZ,m,27,59.9843250478,Set,2017_12_20_2058,
"[2.9, 2.9]",2,0,19,19,19,,,,,39,0,39,0,left,0.558794829529,LZ,m,27,59.9843250478,Set,2017_12_20_2058,
"[2.9, 2.9]",2,0,19,19,19,,,,,40,0,40,0,right,0.0921183206374,LZ,m,27,59.9843250478,Set,2017_12_20_2058,
"[2.9, 2.9]",2,0,19,19,19,,,,,41,0,41,0,right,0.342129176017,LZ,m,27,59.9843250478,Set,2017_12_20_2058,
"[2.9, 2.9]",2,0,19,19,19,,,,,42,0,42,0,right,0.208802053239,LZ,m,27,59.9843250478,Set,2017_12_20_2058,
"[2.9, 2.9]",2,0,19,19,19,,,,,43,0,43,0,right,0.242112123407,LZ,m,27,59.9843250478,Set,2017_12_20_2058,
"[2.9, 2.9]",2,0,19,19,19,,,,,44,0,44,0,right,0.208789421595,LZ,m,27,59.9843250478,Set,2017_12_20_2058,
"[2.9, 2.9]",2,0,19,19,19,,,,,45,0,45,0,right,0.092133320868,LZ,m,27,59.9843250478,Set,2017_12_20_2058,
"[2.9, 2.9]",2,0,19,19,19,,,,,46,0,46,0,right,0.6587660925,LZ,m,27,59.9843250478,Set,2017_12_20_2058,
"[2.9, 2.9]",2,0,19,19,19,,,,,47,0,47,0,left,0.408809711225,LZ,m,27,59.9843250478,Set,2017_12_20_2058,
"[2.9, 2.9]",2,0,19,19,19,,,,,48,0,48,0,left,0.375462535652,LZ,m,27,59.9843250478,Set,2017_12_20_2058,
"[2.9, 2.9]",2,0,19,19,19,,,,,49,0,49,0,right,0.258809987572,LZ,m,27,59.9843250478,Set,2017_12_20_2058,
"[2.9, 2.9]",2,0,19,19,19,,,,,50,0,50,0,left,0.125457206741,LZ,m,27,59.9843250478,Set,2017_12_20_2058,
"[2.9, 2.9]",2,0,19,19,19,,,,,51,0,51,0,right,0.225432417123,LZ,m,27,59.9843250478,Set,2017_12_20_2058,
"[2.9, 2.9]",2,0,19,19,19,,,,,52,0,52,0,right,0.158790566376,LZ,m,27,59.9843250478,Set,2017_12_20_2058,
"[2.9, 2.9]",2,0,19,19,19,,,,,53,0,53,0,right,10.0253564693,LZ,m,27,59.9843250478,Set,2017_12_20_2058,
"[2.9, 2.9]",2,0,19,19,19,,,,,54,0,54,0,right,2.77542850922,LZ,m,27,59.9843250478,Set,2017_12_20_2058,
"[2.9, 2.9]",2,0,19,19,19,,,,,55,0,55,0,right,0.375401745783,LZ,m,27,59.9843250478,Set,2017_12_20_2058,
"[2.9, 2.9]",2,0,19,19,19,,,,,56,0,56,0,down,2.2587693294,LZ,m,27,59.9843250478,Set,2017_12_20_2058,
"[2.9, 2.9]",2,0,19,19,19,,,,,57,0,57,0,right,0.208759816131,LZ,m,27,59.9843250478,Set,2017_12_20_2058,
"[2.9, 2.9]",2,0,19,19,19,,,,,58,0,58,0,right,0.17544777249,LZ,m,27,59.9843250478,Set,2017_12_20_2058,
"[2.9, 2.9]",2,0,19,19,19,,,,,59,0,59,0,right,0.125455233036,LZ,m,27,59.9843250478,Set,2017_12_20_2058,
"[2.9, 2.9]",2,0,19,19,19,,,,,60,0,60,0,left,0.225490838522,LZ,m,27,59.9843250478,Set,2017_12_20_2058,
"[2.9, 2.9]",2,0,19,19,19,,,,,61,0,61,0,right,0.125472206855,LZ,m,27,59.9843250478,Set,2017_12_20_2058,
"[2.9, 2.9]",2,0,19,19,19,,,,,62,0,62,0,left,0.325445917202,LZ,m,27,59.9843250478,Set,2017_12_20_2058,
"[2.9, 2.9]",2,0,19,19,19,,,,,63,0,63,0,left,0.392160005285,LZ,m,27,59.9843250478,Set,2017_12_20_2058,
"[2.9, 2.9]",2,0,19,19,19,,,,,64,0,64,0,right,0.242122386582,LZ,m,27,59.9843250478,Set,2017_12_20_2058,
"[2.9, 2.9]",2,0,19,19,19,,,,,65,0,65,0,left,0.0587841715897,LZ,m,27,59.9843250478,Set,2017_12_20_2058,
"[2.9, 2.9]",2,0,19,19,19,,,,,66,0,66,0,right,0.0754800620489,LZ,m,27,59.9843250478,Set,2017_12_20_2058,
"[2.9, 2.9]",2,0,19,19,19,,,,,67,0,67,0,right,0.0754717725795,LZ,m,27,59.9843250478,Set,2017_12_20_2058,
"[2.9, 2.9]",2,0,19,19,19,,,,,68,0,68,0,right,0.0421206497122,LZ,m,27,59.9843250478,Set,2017_12_20_2058,
"[2.9, 2.9]",2,0,19,19,19,,,,,69,0,69,0,right,0.0254488382488,LZ,m,27,59.9843250478,Set,2017_12_20_2058,
"[2.9, 2.9]",2,0,19,19,19,,,,,70,0,70,0,right,0.058784566354,LZ,m,27,59.9843250478,Set,2017_12_20_2058,
"[2.9, 2.9]",2,0,19,19,19,,,,,71,0,71,0,left,0.000258554238826,LZ,m,27,59.9843250478,Set,2017_12_20_2058,
"[2.9, 2.9]",2,0,19,19,19,,,,,72,0,72,0,right,0.0335792821134,LZ,m,27,59.9843250478,Set,2017_12_20_2058,
"[2.9, 2.9]",2,0,19,19,19,,,,,73,0,73,0,right,0.658758987207,LZ,m,27,59.9843250478,Set,2017_12_20_2058,
"[2.9, 2.9]",2,0,19,19,19,,,,,74,0,74,0,right,0.408805369167,LZ,m,27,59.9843250478,Set,2017_12_20_2058,
"[2.9, 2.9]",2,0,19,19,19,,,,,75,0,75,0,right,0.125452075154,LZ,m,27,59.9843250478,Set,2017_12_20_2058,
"[2.9, 2.9]",2,0,19,19,19,,,,,76,0,76,0,right,0.0587719347095,LZ,m,27,59.9843250478,Set,2017_12_20_2058,
"[2.9, 2.9]",2,0,19,19,19,,,,,77,0,77,0,down,0.558773908298,LZ,m,27,59.9843250478,Set,2017_12_20_2058,
"[2.9, 2.9]",2,0,19,19,19,,,,,78,0,78,0,right,0.358776908368,LZ,m,27,59.9843250478,Set,2017_12_20_2058,
"[2.9, 2.9]",2,0,19,19,19,,,,,79,0,79,0,left,0.392126452294,LZ,m,27,59.9843250478,Set,2017_12_20_2058,
"[2.9, 2.9]",2,0,19,19,19,,,,,80,0,80,0,right,0.258806040161,LZ,m,27,59.9843250478,Set,2017_12_20_2058,
"[2.9, 2.9]",2,0,19,19,19,,,,,81,0,81,0,left,0.175463562016,LZ,m,27,59.9843250478,Set,2017_12_20_2058,
"[2.9, 2.9]",2,0,19,19,19,,,,,82,0,82,0,left,0.708776000538,LZ,m,27,59.9843250478,Set,2017_12_20_2058,
"[2.9, 2.9]",2,0,19,19,19,,,,,83,0,83,0,left,0.175440272433,LZ,m,27,59.9843250478,Set,2017_12_20_2058,
"[2.9, 2.9]",2,0,19,19,19,,,,,84,0,84,0,right,0.0421526235295,LZ,m,27,59.9843250478,Set,2017_12_20_2058,
"[2.9, 2.9]",2,0,19,19,19,,,,,85,0,85,0,right,0.0421178865945,LZ,m,27,59.9843250478,Set,2017_12_20_2058,
"[2.9, 2.9]",2,0,19,19,19,,,,,86,0,86,0,right,0.775465614744,LZ,m,27,59.9843250478,Set,2017_12_20_2058,
"[2.9, 2.9]",2,0,19,19,19,,,,,87,0,87,0,left,0.458812513854,LZ,m,27,59.9843250478,Set,2017_12_20_2058,
"[2.9, 2.9]",2,0,19,19,19,,,,,88,0,88,0,down,0.0254437066615,LZ,m,27,59.9843250478,Set,2017_12_20_2058,
"[2.9, 2.9]",2,0,19,19,19,,,,,89,0,89,0,right,0.000256975181401,LZ,m,27,59.9843250478,Set,2017_12_20_2058,
"[2.9, 2.9]",2,0,19,19,19,,,,,90,0,90,0,left,0.0502495147521,LZ,m,27,59.9843250478,Set,2017_12_20_2058,
"[2.9, 2.9]",2,0,19,19,19,,,,,91,0,91,0,right,0.658777539968,LZ,m,27,59.9843250478,Set,2017_12_20_2058,
"[2.9, 2.9]",2,0,19,19,19,,,,,92,0,92,0,right,0.292115715449,LZ,m,27,59.9843250478,Set,2017_12_20_2058,
"[2.9, 2.9]",2,0,19,19,19,,,,,93,0,93,0,left,0.558605354745,LZ,m,27,59.9843250478,Set,2017_12_20_2058,
"[2.9, 2.9]",2,0,19,19,19,,,,,94,0,94,0,right,0.000257370062172,LZ,m,27,59.9843250478,Set,2017_12_20_2058,
"[2.9, 2.9]",2,0,19,19,19,,,,,95,0,95,0,right,0.533651124686,LZ,m,27,59.9843250478,Set,2017_12_20_2058,
"[2.9, 2.9]",2,0,19,19,19,,,,,96,0,96,0,right,0.025481206947,LZ,m,27,59.9843250478,Set,2017_12_20_2058,
"[2.9, 2.9]",2,0,19,19,19,,,,,97,0,97,0,right,0.108755395049,LZ,m,27,59.9843250478,Set,2017_12_20_2058,
"[2.9, 2.9]",2,0,19,19,19,,,,,98,0,98,0,left,0.0254721279489,LZ,m,27,59.9843250478,Set,2017_12_20_2058,
"[2.9, 2.9]",2,0,19,19,19,,,,,99,0,99,0,right,0.000257764826529,LZ,m,27,59.9843250478,Set,2017_12_20_2058,
"[2.9, 2.9]",6,0,20,20,23,,,,,0,0,0,0,down,1.01689286542,LZ,m,27,59.9843250478,Set,2017_12_20_2058,
"[2.9, 2.9]",6,0,20,20,23,,,,,1,0,1,0,left,0.391967767151,LZ,m,27,59.9843250478,Set,2017_12_20_2058,
"[2.9, 2.9]",6,0,20,20,23,,,,,2,0,2,0,right,0.27545653563,LZ,m,27,59.9843250478,Set,2017_12_20_2058,
"[2.9, 2.9]",6,0,20,20,23,,,,,3,0,3,0,right,0.475455114618,LZ,m,27,59.9843250478,Set,2017_12_20_2058,
"[2.9, 2.9]",6,0,20,20,23,,,,,4,0,4,0,right,0.342097991612,LZ,m,27,59.9843250478,Set,2017_12_20_2058,
"[2.9, 2.9]",6,0,20,20,23,,,,,5,0,5,0,right,0.192199715879,LZ,m,27,59.9843250478,Set,2017_12_20_2058,
"[2.9, 2.9]",6,0,20,20,23,,,,,6,0,6,0,right,0.208770868951,LZ,m,27,59.9843250478,Set,2017_12_20_2058,
"[2.9, 2.9]",6,0,20,20,23,,,,,7,0,7,0,right,0.12545325933,LZ,m,27,59.9843250478,Set,2017_12_20_2058,
"[2.9, 2.9]",6,0,20,20,23,,,,,8,0,8,0,left,0.358739408199,LZ,m,27,59.9843250478,Set,2017_12_20_2058,
"[2.9, 2.9]",6,0,20,20,23,,,,,9,0,9,0,right,0.292127952445,LZ,m,27,59.9843250478,Set,2017_12_20_2058,
"[2.9, 2.9]",6,0,20,20,23,,,,,10,0,10,0,left,0.142129412969,LZ,m,27,59.9843250478,Set,2017_12_20_2058,
"[2.9, 2.9]",6,0,20,20,23,,,,,11,0,11,0,right,0.142144807731,LZ,m,27,59.9843250478,Set,2017_12_20_2058,
"[2.9, 2.9]",6,0,20,20,23,,,,,12,0,12,0,left,0.108785789926,LZ,m,27,59.9843250478,Set,2017_12_20_2058,
"[2.9, 2.9]",6,0,20,20,23,,,,,13,0,13,0,right,0.025456338306,LZ,m,27,59.9843250478,Set,2017_12_20_2058,
"[2.9, 2.9]",6,0,20,20,23,,,,,14,0,14,0,right,0.275449825102,LZ,m,27,59.9843250478,Set,2017_12_20_2058,
"[2.9, 2.9]",6,0,20,20,23,,,,,15,0,15,0,left,0.0754808515776,LZ,m,27,59.9843250478,Set,2017_12_20_2058,
"[2.9, 2.9]",6,0,20,20,23,,,,,16,0,16,0,right,0.242127123405,LZ,m,27,59.9843250478,Set,2017_12_20_2058,
"[2.9, 2.9]",6,0,20,20,23,,,,,17,0,17,0,right,0.0754583515227,LZ,m,27,59.9843250478,Set,2017_12_20_2058,
"[2.9, 2.9]",6,0,20,20,23,,,,,18,0,18,0,left,0.408851158922,LZ,m,27,59.9843250478,Set,2017_12_20_2058,
"[2.9, 2.9]",6,0,20,20,23,,,,,19,0,19,0,left,0.258777618874,LZ,m,27,59.9843250478,Set,2017_12_20_2058,
"[2.9, 2.9]",6,0,20,20,23,,,,,20,0,20,0,left,0.24213738658,LZ,m,27,59.9843250478,Set,2017_12_20_2058,
"[2.9, 2.9]",6,0,20,20,23,,,,,21,0,21,0,left,0.108620394254,LZ,m,27,59.9843250478,Set,2017_12_20_2058,
"[2.9, 2.9]",6,0,20,20,23,,,,,22,0,22,0,left,0.0421301234746,LZ,m,27,59.9843250478,Set,2017_12_20_2058,
"[2.9, 2.9]",6,0,20,20,23,,,,,23,0,23,0,left,0.0254662067164,LZ,m,27,59.9843250478,Set,2017_12_20_2058,
"[2.9, 2.9]",6,0,20,20,23,,,,,24,0,24,0,left,0.0754646672867,LZ,m,27,59.9843250478,Set,2017_12_20_2058,
"[2.9, 2.9]",6,0,20,20,23,,,,,25,0,25,0,right,0.358798224246,LZ,m,27,59.9843250478,Set,2017_12_20_2058,
"[2.9, 2.9]",6,0,20,20,23,,,,,26,0,26,0,right,0.292112162802,LZ,m,27,59.9843250478,Set,2017_12_20_2058,
"[2.9, 2.9]",6,0,20,20,23,,,,,27,0,27,0,left,0.208839948289,LZ,m,27,59.9843250478,Set,2017_12_20_2058,
"[2.9, 2.9]",6,0,20,20,23,,,,,28,0,28,0,left,0.300231159315,LZ,m,27,59.9843250478,Set,2017_12_20_2058,
"[2.9, 2.9]",6,0,20,20,23,,,,,29,0,29,0,right,0.108788947924,LZ,m,27,59.9843250478,Set,2017_12_20_2058,
"[2.9, 2.9]",6,0,20,20,23,,,,,30,0,30,0,left,0.00025973841548,LZ,m,27,59.9843250478,Set,2017_12_20_2058,
"[2.9, 2.9]",6,0,20,20,23,,,,,31,0,31,0,left,0.283554216265,LZ,m,27,59.9843250478,Set,2017_12_20_2058,
"[2.9, 2.9]",6,0,20,20,23,,,,,32,0,32,0,left,0.275446272455,LZ,m,27,59.9843250478,Set,2017_12_20_2058,
"[2.9, 2.9]",6,0,20,20,23,,,,,33,0,33,0,left,0.158790566376,LZ,m,27,59.9843250478,Set,2017_12_20_2058,
"[2.9, 2.9]",6,0,20,20,23,,,,,34,0,34,0,right,0.275460483041,LZ,m,27,59.9843250478,Set,2017_12_20_2058,
"[2.9, 2.9]",6,0,20,20,23,,,,,35,0,35,0,left,0.000286185881123,LZ,m,27,59.9843250478,Set,2017_12_20_2058,
"[2.9, 2.9]",6,0,20,20,23,,,,,36,0,36,0,right,0.0754528251709,LZ,m,27,59.9843250478,Set,2017_12_20_2058,
"[2.9, 2.9]",6,0,20,20,23,,,,,37,0,37,0,right,1.74209988641,LZ,m,27,59.9843250478,Set,2017_12_20_2058,
"[2.9, 2.9]",6,0,20,20,23,,,,,38,0,38,0,right,0.0754796674009,LZ,m,27,59.9843250478,Set,2017_12_20_2058,
"[2.9, 2.9]",6,0,20,20,23,,,,,39,0,39,0,left,0.375463719945,LZ,m,27,59.9843250478,Set,2017_12_20_2058,
"[2.9, 2.9]",6,0,20,20,23,,,,,40,0,40,0,left,0.358795855893,LZ,m,27,59.9843250478,Set,2017_12_20_2058,
"[2.9, 2.9]",6,0,20,20,23,,,,,41,0,41,0,left,0.208807579591,LZ,m,27,59.9843250478,Set,2017_12_20_2058,
"[2.9, 2.9]",6,0,20,20,23,,,,,42,0,42,0,right,0.442146623507,LZ,m,27,59.9843250478,Set,2017_12_20_2058,
"[2.9, 2.9]",6,0,20,20,23,,,,,43,0,43,0,left,0.0254638383631,LZ,m,27,59.9843250478,Set,2017_12_20_2058,
"[2.9, 2.9]",6,0,20,20,23,,,,,44,0,44,0,right,0.000250264653005,LZ,m,27,59.9843250478,Set,2017_12_20_2058,
"[2.9, 2.9]",6,0,20,20,23,,,,,45,0,45,0,left,0.000261317472905,LZ,m,27,59.9843250478,Set,2017_12_20_2058,
"[2.9, 2.9]",6,0,20,20,23,,,,,46,0,46,0,left,0.508775842609,LZ,m,27,59.9843250478,Set,2017_12_20_2058,
"[2.9, 2.9]",6,0,20,20,23,,,,,47,0,47,0,left,0.0421170969494,LZ,m,27,59.9843250478,Set,2017_12_20_2058,
"[2.9, 2.9]",6,0,20,20,23,,,,,48,0,48,0,left,0.000257764710113,LZ,m,27,59.9843250478,Set,2017_12_20_2058,
"[2.9, 2.9]",6,0,20,20,23,,,,,49,0,49,0,left,0.0669264578028,LZ,m,27,59.9843250478,Set,2017_12_20_2058,
"[2.9, 2.9]",6,0,20,20,23,,,,,50,0,50,0,left,0.0421407812973,LZ,m,27,59.9843250478,Set,2017_12_20_2058,
"[2.9, 2.9]",6,0,20,20,23,,,,,51,0,51,0,left,0.0421332813567,LZ,m,27,59.9843250478,Set,2017_12_20_2058,
"[2.9, 2.9]",6,0,20,20,23,,,,,52,0,52,0,right,0.0921281891642,LZ,m,27,59.9843250478,Set,2017_12_20_2058,
"[2.9, 2.9]",6,0,20,20,23,,,,,53,0,53,0,right,0.49208982056,LZ,m,27,59.9843250478,Set,2017_12_20_2058,
"[2.9, 2.9]",6,0,20,20,23,,,,,54,0,54,0,right,0.108781447867,LZ,m,27,59.9843250478,Set,2017_12_20_2058,
"[2.9, 2.9]",6,0,20,20,23,,,,,55,0,55,0,right,0.125461943564,LZ,m,27,59.9843250478,Set,2017_12_20_2058,
"[2.9, 2.9]",6,0,20,20,23,,,,,56,0,56,0,right,0.308804105851,LZ,m,27,59.9843250478,Set,2017_12_20_2058,
"[2.9, 2.9]",6,0,20,20,23,,,,,57,0,57,0,left,0.375452667242,LZ,m,27,59.9843250478,Set,2017_12_20_2058,
"[2.9, 2.9]",6,0,20,20,23,,,,,58,0,58,0,right,0.208842711407,LZ,m,27,59.9843250478,Set,2017_12_20_2058,
"[2.9, 2.9]",6,0,20,20,23,,,,,59,0,59,0,right,0.34211338649,LZ,m,27,59.9843250478,Set,2017_12_20_2058,
"[2.9, 2.9]",6,0,20,20,23,,,,,60,0,60,0,right,0.158765302971,LZ,m,27,59.9843250478,Set,2017_12_20_2058,
"[2.9, 2.9]",6,0,20,20,23,,,,,61,0,61,0,right,0.0921072680503,LZ,m,27,59.9843250478,Set,2017_12_20_2058,
"[2.9, 2.9]",6,0,20,20,23,,,,,62,0,62,0,right,0.0921092416393,LZ,m,27,59.9843250478,Set,2017_12_20_2058,
"[2.9, 2.9]",6,0,20,20,23,,,,,63,0,63,0,right,0.0754682199331,LZ,m,27,59.9843250478,Set,2017_12_20_2058,
"[2.9, 2.9]",6,0,20,20,23,,,,,64,0,64,0,right,0.0754701936385,LZ,m,27,59.9843250478,Set,2017_12_20_2058,
"[2.9, 2.9]",6,0,20,20,23,,,,,65,0,65,0,right,0.0421238075942,LZ,m,27,59.9843250478,Set,2017_12_20_2058,
"[2.9, 2.9]",6,0,20,20,23,,,,,66,0,66,0,right,0.0254180486081,LZ,m,27,59.9843250478,Set,2017_12_20_2058,
"[2.9, 2.9]",6,0,20,20,23,,,,,67,0,67,0,left,0.375300692511,LZ,m,27,59.9843250478,Set,2017_12_20_2058,
"[2.9, 2.9]",6,0,20,20,23,,,,,68,0,68,0,right,0.0254752858309,LZ,m,27,59.9843250478,Set,2017_12_20_2058,
"[2.9, 2.9]",6,0,20,20,23,,,,,69,0,69,0,right,0.1921231366,LZ,m,27,59.9843250478,Set,2017_12_20_2058,
"[2.9, 2.9]",6,0,20,20,23,,,,,70,0,70,0,right,0.192083267844,LZ,m,27,59.9843250478,Set,2017_12_20_2058,
"[2.9, 2.9]",6,0,20,20,23,,,,,71,0,71,0,right,0.442126491922,LZ,m,27,59.9843250478,Set,2017_12_20_2058,
"[2.9, 2.9]",6,0,20,20,23,,,,,72,0,72,0,right,0.392112241709,LZ,m,27,59.9843250478,Set,2017_12_20_2058,
"[2.9, 2.9]",6,0,20,20,23,,,,,73,0,73,0,down,0.558751013479,LZ,m,27,59.9843250478,Set,2017_12_20_2058,
"[2.9, 2.9]",6,0,20,20,23,,,,,74,0,74,0,right,0.0421431497671,LZ,m,27,59.9843250478,Set,2017_12_20_2058,
"[2.9, 2.9]",6,0,20,20,23,,,,,75,0,75,0,right,0.108613683726,LZ,m,27,59.9843250478,Set,2017_12_20_2058,
"[2.9, 2.9]",6,0,20,20,23,,,,,76,0,76,0,left,0.0254685751861,LZ,m,27,59.9843250478,Set,2017_12_20_2058,
"[2.9, 2.9]",6,0,20,20,23,,,,,77,0,77,0,left,0.725435575005,LZ,m,27,59.9843250478,Set,2017_12_20_2058,
"[2.9, 2.9]",6,0,20,20,23,,,,,78,0,78,0,right,0.192119189189,LZ,m,27,59.9843250478,Set,2017_12_20_2058,
"[2.9, 2.9]",6,0,20,20,23,,,,,79,0,79,0,left,0.000260922708549,LZ,m,27,59.9843250478,Set,2017_12_20_2058,
"[2.9, 2.9]",6,0,20,20,23,,,,,80,0,80,0,right,1.05022267241,LZ,m,27,59.9843250478,Set,2017_12_20_2058,
"[2.9, 2.9]",6,0,20,20,23,,,,,81,0,81,0,right,0.142119544325,LZ,m,27,59.9843250478,Set,2017_12_20_2058,
"[2.9, 2.9]",6,0,20,20,23,,,,,82,0,82,0,right,0.0587912768824,LZ,m,27,59.9843250478,Set,2017_12_20_2058,
"[2.9, 2.9]",6,0,20,20,23,,,,,83,0,83,0,right,0.108775526867,LZ,m,27,59.9843250478,Set,2017_12_20_2058,
"[2.9, 2.9]",6,0,20,20,23,,,,,84,0,84,0,right,0.508786500548,LZ,m,27,59.9843250478,Set,2017_12_20_2058,
"[2.9, 2.9]",6,0,20,20,23,,,,,85,0,85,0,right,0.192151163006,LZ,m,27,59.9843250478,Set,2017_12_20_2058,
"[2.9, 2.9]",6,0,20,20,23,,,,,86,0,86,0,right,0.0587896979414,LZ,m,27,59.9843250478,Set,2017_12_20_2058,
"[2.9, 2.9]",6,0,20,20,23,,,,,87,0,87,0,right,0.0755005885148,LZ,m,27,59.9843250478,Set,2017_12_20_2058,
"[2.9, 2.9]",6,0,20,20,23,,,,,88,0,88,0,right,0.0588086454663,LZ,m,27,59.9843250478,Set,2017_12_20_2058,
"[2.9, 2.9]",6,0,20,20,23,,,,,89,0,89,0,right,0.000253817299381,LZ,m,27,59.9843250478,Set,2017_12_20_2058,
"[2.9, 2.9]",6,0,20,20,23,,,,,90,0,90,0,right,0.0254614698933,LZ,m,27,59.9843250478,Set,2017_12_20_2058,
"[2.9, 2.9]",6,0,20,20,23,,,,,91,0,91,0,right,0.325444338261,LZ,m,27,59.9843250478,Set,2017_12_20_2058,
"[2.9, 2.9]",6,0,20,20,23,,,,,92,0,92,0,right,0.125462338328,LZ,m,27,59.9843250478,Set,2017_12_20_2058,
"[2.9, 2.9]",6,0,20,20,23,,,,,93,0,93,0,right,0.525511601823,LZ,m,27,59.9843250478,Set,2017_12_20_2058,
"[2.9, 2.9]",6,0,20,20,23,,,,,94,0,94,0,down,0.25877722411,LZ,m,27,59.9843250478,Set,2017_12_20_2058,
"[2.9, 2.9]",6,0,20,20,23,,,,,95,0,95,0,right,0.692112873308,LZ,m,27,59.9843250478,Set,2017_12_20_2058,
"[2.9, 2.9]",6,0,20,20,23,,,,,96,0,96,0,right,1.40023439622,LZ,m,27,59.9843250478,Set,2017_12_20_2058,
"[2.9, 2.9]",6,0,20,20,23,,,,,97,0,97,0,right,0.275434035459,LZ,m,27,59.9843250478,Set,2017_12_20_2058,
"[2.9, 2.9]",6,0,20,20,23,,,,,98,0,98,0,right,0.0254867331823,LZ,m,27,59.9843250478,Set,2017_12_20_2058,
"[2.9, 2.9]",6,0,20,20,23,,,,,99,0,99,0,right,0.14211164962,LZ,m,27,59.9843250478,Set,2017_12_20_2058,
"[2.8, 2.8]",6,0,21,21,17,,,,,0,0,0,0,down,0.683565190062,LZ,m,27,59.9843250478,Set,2017_12_20_2058,
"[2.8, 2.8]",6,0,21,21,17,,,,,1,0,1,0,right,0.492129294435,LZ,m,27,59.9843250478,Set,2017_12_20_2058,
"[2.8, 2.8]",6,0,21,21,17,,,,,2,0,2,0,down,1.00875886879,LZ,m,27,59.9843250478,Set,2017_12_20_2058,
"[2.8, 2.8]",6,0,21,21,17,,,,,3,0,3,0,left,0.308787132148,LZ,m,27,59.9843250478,Set,2017_12_20_2058,
"[2.8, 2.8]",6,0,21,21,17,,,,,4,0,4,0,left,0.558785750531,LZ,m,27,59.9843250478,Set,2017_12_20_2058,
"[2.8, 2.8]",6,0,21,21,17,,,,,5,0,5,0,right,0.292127952329,LZ,m,27,59.9843250478,Set,2017_12_20_2058,
"[2.8, 2.8]",6,0,21,21,17,,,,,6,0,6,0,right,1.50878847425,LZ,m,27,59.9843250478,Set,2017_12_20_2058,
"[2.8, 2.8]",6,0,21,21,17,,,,,7,0,7,0,right,0.275430877577,LZ,m,27,59.9843250478,Set,2017_12_20_2058,
"[2.8, 2.8]",6,0,21,21,17,,,,,8,0,8,0,right,0.108768421458,LZ,m,27,59.9843250478,Set,2017_12_20_2058,
"[2.8, 2.8]",6,0,21,21,17,,,,,9,0,9,0,right,0.125456811977,LZ,m,27,59.9843250478,Set,2017_12_20_2058,
"[2.8, 2.8]",6,0,21,21,17,,,,,10,0,10,0,right,0.158755434561,LZ,m,27,59.9843250478,Set,2017_12_20_2058,
"[2.8, 2.8]",6,0,21,21,17,,,,,11,0,11,0,right,0.425458627869,LZ,m,27,59.9843250478,Set,2017_12_20_2058,
"[2.8, 2.8]",6,0,21,21,17,,,,,12,0,12,0,right,0.40881642187,LZ,m,27,59.9843250478,Set,2017_12_20_2058,
"[2.8, 2.8]",6,0,21,21,17,,,,,13,0,13,0,right,0.175487246364,LZ,m,27,59.9843250478,Set,2017_12_20_2058,
"[2.8, 2.8]",6,0,21,21,17,,,,,14,0,14,0,right,0.108763684635,LZ,m,27,59.9843250478,Set,2017_12_20_2058,
"[2.8, 2.8]",6,0,21,21,17,,,,,15,0,15,0,right,0.0754508513492,LZ,m,27,59.9843250478,Set,2017_12_20_2058,
"[2.8, 2.8]",6,0,21,21,17,,,,,16,0,16,0,right,0.0588524613995,LZ,m,27,59.9843250478,Set,2017_12_20_2058,
"[2.8, 2.8]",6,0,21,21,17,,,,,17,0,17,0,right,0.292109399685,LZ,m,27,59.9843250478,Set,2017_12_20_2058,
"[2.8, 2.8]",6,0,21,21,17,,,,,18,0,18,0,right,0.0921108206967,LZ,m,27,59.9843250478,Set,2017_12_20_2058,
"[2.8, 2.8]",6,0,21,21,17,,,,,19,0,19,0,right,0.0421553867636,LZ,m,27,59.9843250478,Set,2017_12_20_2058,
"[2.8, 2.8]",6,0,21,21,17,,,,,20,0,20,0,right,0.0588121981127,LZ,m,27,59.9843250478,Set,2017_12_20_2058,
"[2.8, 2.8]",6,0,21,21,17,,,,,21,0,21,0,right,0.0421545972349,LZ,m,27,59.9843250478,Set,2017_12_20_2058,
"[2.8, 2.8]",6,0,21,21,17,,,,,22,0,22,0,right,0.0835915586213,LZ,m,27,59.9843250478,Set,2017_12_20_2058,
"[2.8, 2.8]",6,0,21,21,17,,,,,23,0,23,0,right,0.0421297285939,LZ,m,27,59.9843250478,Set,2017_12_20_2058,
"[2.8, 2.8]",6,0,21,21,17,,,,,24,0,24,0,right,0.175483298954,LZ,m,27,59.9843250478,Set,2017_12_20_2058,
"[2.8, 2.8]",6,0,21,21,17,,,,,25,0,25,0,right,0.0754796674009,LZ,m,27,59.9843250478,Set,2017_12_20_2058,
"[2.8, 2.8]",6,0,21,21,17,,,,,26,0,26,0,right,0.0421273602406,LZ,m,27,59.9843250478,Set,2017_12_20_2058,
"[2.8, 2.8]",6,0,21,21,17,,,,,27,0,27,0,right,0.0754658514634,LZ,m,27,59.9843250478,Set,2017_12_20_2058,
"[2.8, 2.8]",6,0,21,21,17,,,,,28,0,28,0,right,0.658779118909,LZ,m,27,59.9843250478,Set,2017_12_20_2058,
"[2.8, 2.8]",6,0,21,21,17,,,,,29,0,29,0,right,0.10879486904,LZ,m,27,59.9843250478,Set,2017_12_20_2058,
"[2.8, 2.8]",6,0,21,21,17,,,,,30,0,30,0,right,0.0754516408779,LZ,m,27,59.9843250478,Set,2017_12_20_2058,
"[2.8, 2.8]",6,0,21,21,17,,,,,31,0,31,0,right,0.0255013385322,LZ,m,27,59.9843250478,Set,2017_12_20_2058,
"[2.8, 2.8]",6,0,21,21,17,,,,,32,0,32,0,right,0.0421289391816,LZ,m,27,59.9843250478,Set,2017_12_20_2058,
"[2.8, 2.8]",6,0,21,21,17,,,,,33,0,33,0,right,0.0421317024156,LZ,m,27,59.9843250478,Set,2017_12_20_2058,
"[2.8, 2.8]",6,0,21,21,17,,,,,34,0,34,0,right,0.108799605863,LZ,m,27,59.9843250478,Set,2017_12_20_2058,
"[2.8, 2.8]",6,0,21,21,17,,,,,35,0,35,0,right,0.0921281891642,LZ,m,27,59.9843250478,Set,2017_12_20_2058,
"[2.8, 2.8]",6,0,21,21,17,,,,,36,0,36,0,left,0.0587971979985,LZ,m,27,59.9843250478,Set,2017_12_20_2058,
"[2.8, 2.8]",6,0,21,21,17,,,,,37,0,37,0,right,0.342123649665,LZ,m,27,59.9843250478,Set,2017_12_20_2058,
"[2.8, 2.8]",6,0,21,21,17,,,,,38,0,38,0,right,0.12546549621,LZ,m,27,59.9843250478,Set,2017_12_20_2058,
"[2.8, 2.8]",6,0,21,21,17,,,,,39,0,39,0,right,0.0754595356993,LZ,m,27,59.9843250478,Set,2017_12_20_2058,
"[2.8, 2.8]",6,0,21,21,17,,,,,40,0,40,0,right,0.125450890861,LZ,m,27,59.9843250478,Set,2017_12_20_2058,
"[2.8, 2.8]",6,0,21,21,17,,,,,41,0,41,0,right,0.0254484434845,LZ,m,27,59.9843250478,Set,2017_12_20_2058,
"[2.8, 2.8]",6,0,21,21,17,,,,,42,0,42,0,right,0.0587896979414,LZ,m,27,59.9843250478,Set,2017_12_20_2058,
"[2.8, 2.8]",6,0,21,21,17,,,,,43,0,43,0,right,0.0421234128298,LZ,m,27,59.9843250478,Set,2017_12_20_2058,
"[2.8, 2.8]",6,0,21,21,17,,,,,44,0,44,0,right,0.0421494656475,LZ,m,27,59.9843250478,Set,2017_12_20_2058,
"[2.8, 2.8]",6,0,21,21,17,,,,,45,0,45,0,right,0.000255396240391,LZ,m,27,59.9843250478,Set,2017_12_20_2058,
"[2.8, 2.8]",6,0,21,21,17,,,,,46,0,46,0,left,1.01689839177,LZ,m,27,59.9843250478,Set,2017_12_20_2058,
"[2.8, 2.8]",6,0,21,21,17,,,,,47,0,47,0,right,0.242124360171,LZ,m,27,59.9843250478,Set,2017_12_20_2058,
"[2.8, 2.8]",6,0,21,21,17,,,,,48,0,48,0,right,0.208792184829,LZ,m,27,59.9843250478,Set,2017_12_20_2058,
"[2.8, 2.8]",6,0,21,21,17,,,,,49,0,49,0,right,0.142156649847,LZ,m,27,59.9843250478,Set,2017_12_20_2058,
"[2.8, 2.8]",6,0,21,21,17,,,,,50,0,50,0,right,0.225456496235,LZ,m,27,59.9843250478,Set,2017_12_20_2058,
"[2.8, 2.8]",6,0,21,21,17,,,,,51,0,51,0,right,0.125454443623,LZ,m,27,59.9843250478,Set,2017_12_20_2058,
"[2.8, 2.8]",6,0,21,21,17,,,,,52,0,52,0,right,0.375451877713,LZ,m,27,59.9843250478,Set,2017_12_20_2058,
"[2.8, 2.8]",6,0,21,21,17,,,,,53,0,53,0,left,0.592107267934,LZ,m,27,59.9843250478,Set,2017_12_20_2058,
"[2.8, 2.8]",6,0,21,21,17,,,,,54,0,54,0,left,0.541969069862,LZ,m,27,59.9843250478,Set,2017_12_20_2058,
"[2.8, 2.8]",6,0,21,21,17,,,,,55,0,55,0,right,0.275458114571,LZ,m,27,59.9843250478,Set,2017_12_20_2058,
"[2.8, 2.8]",6,0,21,21,17,,,,,56,0,56,0,right,0.058756145183,LZ,m,27,59.9843250478,Set,2017_12_20_2058,
"[2.8, 2.8]",6,0,21,21,17,,,,,57,0,57,0,right,1.09211200487,LZ,m,27,59.9843250478,Set,2017_12_20_2058,
"[2.8, 2.8]",6,0,21,21,17,,,,,58,0,58,0,right,4.05874311866,LZ,m,27,59.9843250478,Set,2017_12_20_2058,
"[2.8, 2.8]",6,0,21,21,17,,,,,59,0,59,0,right,0.37545543036,LZ,m,27,59.9843250478,Set,2017_12_20_2058,
"[2.8, 2.8]",6,0,21,21,17,,,,,60,0,60,0,right,0.0921135838144,LZ,m,27,59.9843250478,Set,2017_12_20_2058,
"[2.8, 2.8]",6,0,21,21,17,,,,,61,0,61,0,right,0.642123096972,LZ,m,27,59.9843250478,Set,2017_12_20_2058,
"[2.8, 2.8]",6,0,21,21,17,,,,,62,0,62,0,right,0.0588121981127,LZ,m,27,59.9843250478,Set,2017_12_20_2058,
"[2.8, 2.8]",6,0,21,21,17,,,,,63,0,63,0,right,0.142128228676,LZ,m,27,59.9843250478,Set,2017_12_20_2058,
"[2.8, 2.8]",6,0,21,21,17,,,,,64,0,64,0,right,0.0421234128298,LZ,m,27,59.9843250478,Set,2017_12_20_2058,
"[2.8, 2.8]",6,0,21,21,17,,,,,65,0,65,0,right,0.208783895359,LZ,m,27,59.9843250478,Set,2017_12_20_2058,
"[2.8, 2.8]",6,0,21,21,17,,,,,66,0,66,0,right,1.87544358824,LZ,m,27,59.9843250478,Set,2017_12_20_2058,
"[2.8, 2.8]",6,0,21,21,17,,,,,67,0,67,0,right,0.042160518351,LZ,m,27,59.9843250478,Set,2017_12_20_2058,
"[2.8, 2.8]",6,0,21,21,17,,,,,68,0,68,0,down,5.308637526,LZ,m,27,59.9843250478,Set,2017_12_20_2058,
"[2.8, 2.8]",6,0,21,21,17,,,,,69,0,69,0,down,1.02542396961,LZ,m,27,59.9843250478,Set,2017_12_20_2058,
"[2.8, 2.8]",6,0,21,21,17,,,,,70,0,70,0,left,0.32547552255,LZ,m,27,59.9843250478,Set,2017_12_20_2058,
"[2.8, 2.8]",6,0,21,21,17,,,,,71,0,71,0,left,0.325456969906,LZ,m,27,59.9843250478,Set,2017_12_20_2058,
"[2.8, 2.8]",6,0,21,21,17,,,,,72,0,72,0,left,0.35878243472,LZ,m,27,59.9843250478,Set,2017_12_20_2058,
"[2.8, 2.8]",6,0,21,21,17,,,,,73,0,73,0,left,0.258628407493,LZ,m,27,59.9843250478,Set,2017_12_20_2058,
"[2.8, 2.8]",6,0,21,21,17,,,,,74,0,74,0,left,0.442109517986,LZ,m,27,59.9843250478,Set,2017_12_20_2058,
"[2.8, 2.8]",6,0,21,21,17,,,,,75,0,75,0,right,0.99208982056,LZ,m,27,59.9843250478,Set,2017_12_20_2058,
"[2.8, 2.8]",6,0,21,21,17,,,,,76,0,76,0,left,0.408792342758,LZ,m,27,59.9843250478,Set,2017_12_20_2058,
"[2.8, 2.8]",6,0,21,21,17,,,,,77,0,77,0,right,0.192136952421,LZ,m,27,59.9843250478,Set,2017_12_20_2058,
"[2.8, 2.8]",6,0,21,21,17,,,,,78,0,78,0,left,0.30879029003,LZ,m,27,59.9843250478,Set,2017_12_20_2058,
"[2.8, 2.8]",6,0,21,21,17,,,,,79,0,79,0,right,0.0754701936385,LZ,m,27,59.9843250478,Set,2017_12_20_2058,
"[2.8, 2.8]",6,0,21,21,17,,,,,80,0,80,0,left,0.0587821978843,LZ,m,27,59.9843250478,Set,2017_12_20_2058,
"[2.8, 2.8]",6,0,21,21,17,,,,,81,0,81,0,left,0.10879960598,LZ,m,27,59.9843250478,Set,2017_12_20_2058,
"[2.8, 2.8]",6,0,21,21,17,,,,,82,0,82,0,left,0.125435890863,LZ,m,27,59.9843250478,Set,2017_12_20_2058,
"[2.8, 2.8]",6,0,21,21,17,,,,,83,0,83,0,left,0.15875148715,LZ,m,27,59.9843250478,Set,2017_12_20_2058,
"[2.8, 2.8]",6,0,21,21,17,,,,,84,0,84,0,right,0.292120057507,LZ,m,27,59.9843250478,Set,2017_12_20_2058,
"[2.8, 2.8]",6,0,21,21,17,,,,,85,0,85,0,left,0.258796171634,LZ,m,27,59.9843250478,Set,2017_12_20_2058,
"[2.8, 2.8]",6,0,21,21,17,,,,,86,0,86,0,right,0.29210861004,LZ,m,27,59.9843250478,Set,2017_12_20_2058,
"[2.8, 2.8]",6,0,21,21,17,,,,,87,0,87,0,left,0.308774895268,LZ,m,27,59.9843250478,Set,2017_12_20_2058,
"[2.8, 2.8]",6,0,21,21,17,,,,,88,0,88,0,down,0.975457088207,LZ,m,27,59.9843250478,Set,2017_12_20_2058,
"[2.8, 2.8]",6,0,21,21,17,,,,,89,0,89,0,left,0.342096412787,LZ,m,27,59.9843250478,Set,2017_12_20_2058,
"[2.8, 2.8]",6,0,21,21,17,,,,,90,0,90,0,left,0.508735184441,LZ,m,27,59.9843250478,Set,2017_12_20_2058,
"[2.8, 2.8]",6,0,21,21,17,,,,,91,0,91,0,left,0.458791987388,LZ,m,27,59.9843250478,Set,2017_12_20_2058,
"[2.8, 2.8]",6,0,21,21,17,,,,,92,0,92,0,left,0.775448640925,LZ,m,27,59.9843250478,Set,2017_12_20_2058,
"[2.8, 2.8]",6,0,21,21,17,,,,,93,0,93,0,left,0.342134702369,LZ,m,27,59.9843250478,Set,2017_12_20_2058,
"[2.8, 2.8]",6,0,21,21,17,,,,,94,0,94,0,right,1.02543423278,LZ,m,27,59.9843250478,Set,2017_12_20_2058,
"[2.8, 2.8]",6,0,21,21,17,,,,,95,0,95,0,left,0.29210032057,LZ,m,27,59.9843250478,Set,2017_12_20_2058,
"[2.8, 2.8]",6,0,21,21,17,,,,,96,0,96,0,down,0.50879597431,LZ,m,27,59.9843250478,Set,2017_12_20_2058,
"[2.8, 2.8]",6,0,21,21,17,,,,,97,0,97,0,left,0.108807895449,LZ,m,27,59.9843250478,Set,2017_12_20_2058,
"[2.8, 2.8]",6,0,21,21,17,,,,,98,0,98,0,right,0.425445601344,LZ,m,27,59.9843250478,Set,2017_12_20_2058,
"[2.8, 2.8]",6,0,21,21,17,,,,,99,0,99,0,left,0.79210900492,LZ,m,27,59.9843250478,Set,2017_12_20_2058,
"[2.9, 2.9]",3,0,22,22,20,,,,,0,0,0,0,right,0.60023731715,LZ,m,27,59.9843250478,Set,2017_12_20_2058,
"[2.9, 2.9]",3,0,22,22,20,,,,,1,0,1,0,left,3.70873573713,LZ,m,27,59.9843250478,Set,2017_12_20_2058,
"[2.9, 2.9]",3,0,22,22,20,,,,,2,0,2,0,left,0.52530752169,LZ,m,27,59.9843250478,Set,2017_12_20_2058,
"[2.9, 2.9]",3,0,22,22,20,,,,,3,0,3,0,left,0.442123728571,LZ,m,27,59.9843250478,Set,2017_12_20_2058,
"[2.9, 2.9]",3,0,22,22,20,,,,,4,0,4,0,right,0.258779197931,LZ,m,27,59.9843250478,Set,2017_12_20_2058,
"[2.9, 2.9]",3,0,22,22,20,,,,,5,0,5,0,right,0.175450930372,LZ,m,27,59.9843250478,Set,2017_12_20_2058,
"[2.9, 2.9]",3,0,22,22,20,,,,,6,0,6,0,right,0.133582519018,LZ,m,27,59.9843250478,Set,2017_12_20_2058,
"[2.9, 2.9]",3,0,22,22,20,,,,,7,0,7,0,right,0.15862082853,LZ,m,27,59.9843250478,Set,2017_12_20_2058,
"[2.9, 2.9]",3,0,22,22,20,,,,,8,0,8,0,right,0.225441496004,LZ,m,27,59.9843250478,Set,2017_12_20_2058,
"[2.9, 2.9]",3,0,22,22,20,,,,,9,0,9,0,right,0.108773158398,LZ,m,27,59.9843250478,Set,2017_12_20_2058,
"[2.9, 2.9]",3,0,22,22,20,,,,,10,0,10,0,right,0.0587999612326,LZ,m,27,59.9843250478,Set,2017_12_20_2058,
"[2.9, 2.9]",3,0,22,22,20,,,,,11,0,11,0,right,0.141959280358,LZ,m,27,59.9843250478,Set,2017_12_20_2058,
"[2.9, 2.9]",3,0,22,22,20,,,,,12,0,12,0,right,0.225475838291,LZ,m,27,59.9843250478,Set,2017_12_20_2058,
"[2.9, 2.9]",3,0,22,22,20,,,,,13,0,13,0,right,0.10880315851,LZ,m,27,59.9843250478,Set,2017_12_20_2058,
"[2.9, 2.9]",3,0,22,22,20,,,,,14,0,14,0,right,0.108835132443,LZ,m,27,59.9843250478,Set,2017_12_20_2058,
"[2.9, 2.9]",3,0,22,22,20,,,,,15,0,15,0,right,0.58357537433,LZ,m,27,59.9843250478,Set,2017_12_20_2058,
"[2.9, 2.9]",3,0,22,22,20,,,,,16,0,16,0,right,0.000257370062172,LZ,m,27,59.9843250478,Set,2017_12_20_2058,
"[2.9, 2.9]",3,0,22,22,20,,,,,17,0,17,0,right,0.0669082996901,LZ,m,27,59.9843250478,Set,2017_12_20_2058,
"[2.9, 2.9]",3,0,22,22,20,,,,,18,0,18,0,right,0.0588015400572,LZ,m,27,59.9843250478,Set,2017_12_20_2058,
"[2.9, 2.9]",3,0,22,22,20,,,,,19,0,19,0,left,0.0754390092334,LZ,m,27,59.9843250478,Set,2017_12_20_2058,
"[2.9, 2.9]",3,0,22,22,20,,,,,20,0,20,0,right,0.833596492768,LZ,m,27,59.9843250478,Set,2017_12_20_2058,
"[2.9, 2.9]",3,0,22,22,20,,,,,21,0,21,0,right,0.208776000538,LZ,m,27,59.9843250478,Set,2017_12_20_2058,
"[2.9, 2.9]",3,0,22,22,20,,,,,22,0,22,0,right,0.375469246297,LZ,m,27,59.9843250478,Set,2017_12_20_2058,
"[2.9, 2.9]",3,0,22,22,20,,,,,23,0,23,0,right,0.592151873512,LZ,m,27,59.9843250478,Set,2017_12_20_2058,
"[2.9, 2.9]",3,0,22,22,20,,,,,24,0,24,0,right,0.392100794357,LZ,m,27,59.9843250478,Set,2017_12_20_2058,
"[2.9, 2.9]",3,0,22,22,20,,,,,25,0,25,0,right,0.358819935005,LZ,m,27,59.9843250478,Set,2017_12_20_2058,
"[2.9, 2.9]",3,0,22,22,20,,,,,26,0,26,0,down,0.675446193432,LZ,m,27,59.9843250478,Set,2017_12_20_2058,
"[2.9, 2.9]",3,0,22,22,20,,,,,27,0,27,0,left,0.375440430245,LZ,m,27,59.9843250478,Set,2017_12_20_2058,
"[2.9, 2.9]",3,0,22,22,20,,,,,28,0,28,0,left,0.458797513857,LZ,m,27,59.9843250478,Set,2017_12_20_2058,
"[2.9, 2.9]",3,0,22,22,20,,,,,29,0,29,0,left,0.725433995947,LZ,m,27,59.9843250478,Set,2017_12_20_2058,
"[2.9, 2.9]",3,0,22,22,20,,,,,30,0,30,0,left,0.492120610201,LZ,m,27,59.9843250478,Set,2017_12_20_2058,
"[2.9, 2.9]",3,0,22,22,20,,,,,31,0,31,0,right,0.225486496347,LZ,m,27,59.9843250478,Set,2017_12_20_2058,
"[2.9, 2.9]",3,0,22,22,20,,,,,32,0,32,0,right,0.3254609172,LZ,m,27,59.9843250478,Set,2017_12_20_2058,
"[2.9, 2.9]",3,0,22,22,20,,,,,33,0,33,0,right,0.608822500799,LZ,m,27,59.9843250478,Set,2017_12_20_2058,
"[2.9, 2.9]",3,0,22,22,20,,,,,34,0,34,0,left,1.02544370666,LZ,m,27,59.9843250478,Set,2017_12_20_2058,
"[2.9, 2.9]",3,0,22,22,20,,,,,35,0,35,0,left,0.375436482835,LZ,m,27,59.9843250478,Set,2017_12_20_2058,
"[2.9, 2.9]",3,0,22,22,20,,,,,36,0,36,0,right,0.38357363746,LZ,m,27,59.9843250478,Set,2017_12_20_2058,
"[2.9, 2.9]",3,0,22,22,20,,,,,37,0,37,0,down,4.99207284674,LZ,m,27,59.9843250478,Set,2017_12_20_2058,
"[2.9, 2.9]",3,0,22,22,20,,,,,38,0,38,0,down,1.40878800058,LZ,m,27,59.9843250478,Set,2017_12_20_2058,
"[3.0, 3.0]",5,0,23,23,28,,,,,0,0,0,0,right,1.16694469471,LZ,m,27,59.9843250478,Set,2017_12_20_2058,
"[3.0, 3.0]",5,0,23,23,28,,,,,1,0,1,0,down,3.42545468034,LZ,m,27,59.9843250478,Set,2017_12_20_2058,
"[3.0, 3.0]",5,0,23,23,28,,,,,2,0,2,0,down,0.392108689179,LZ,m,27,59.9843250478,Set,2017_12_20_2058,
"[2.8, 2.8]",3,0,24,24,14,,,,,0,0,0,0,down,0.508786500548,LZ,m,27,59.9843250478,Set,2017_12_20_2058,
"[2.8, 2.8]",3,0,24,24,14,,,,,1,0,1,0,left,1.1921108996,LZ,m,27,59.9843250478,Set,2017_12_20_2058,
"[2.8, 2.8]",3,0,24,24,14,,,,,2,0,2,0,right,1.35877769778,LZ,m,27,59.9843250478,Set,2017_12_20_2058,
"[2.8, 2.8]",3,0,24,24,14,,,,,3,0,3,0,left,0.608801579685,LZ,m,27,59.9843250478,Set,2017_12_20_2058,
"[2.8, 2.8]",3,0,24,24,14,,,,,4,0,4,0,down,3.64209822845,LZ,m,27,59.9843250478,Set,2017_12_20_2058,
"[2.8, 2.8]",3,0,24,24,14,,,,,5,0,5,0,right,0.475453140796,LZ,m,27,59.9843250478,Set,2017_12_20_2058,
"[2.8, 2.8]",3,0,24,24,14,,,,,6,0,6,0,left,3.84209483373,LZ,m,27,59.9843250478,Set,2017_12_20_2058,
"[2.8, 2.8]",3,0,24,24,14,,,,,7,0,7,0,left,0.442137149861,LZ,m,27,59.9843250478,Set,2017_12_20_2058,
"[2.8, 2.8]",3,0,24,24,14,,,,,8,0,8,0,down,0.675461983075,LZ,m,27,59.9843250478,Set,2017_12_20_2058,
"[2.8, 2.8]",3,0,24,24,14,,,,,9,0,9,0,right,0.308793842676,LZ,m,27,59.9843250478,Set,2017_12_20_2058,
"[2.8, 2.8]",3,0,24,24,14,,,,,10,0,10,0,right,0.258797355928,LZ,m,27,59.9843250478,Set,2017_12_20_2058,
"[2.8, 2.8]",3,0,24,24,14,,,,,11,0,11,0,left,4.54205196502,LZ,m,27,59.9843250478,Set,2017_12_20_2058,
"[2.8, 2.8]",3,0,24,24,14,,,,,12,0,12,0,right,0.358740197611,LZ,m,27,59.9843250478,Set,2017_12_20_2058,
"[2.8, 2.8]",3,0,24,24,14,,,,,13,0,13,0,right,1.3587544082,LZ,m,27,59.9843250478,Set,2017_12_20_2058,
"[2.8, 2.8]",3,0,24,24,14,,,,,14,0,14,0,down,0.342131149839,LZ,m,27,59.9843250478,Set,2017_12_20_2058,
"[2.8, 2.8]",3,0,24,24,14,,,,,15,0,15,0,right,0.575401114183,LZ,m,27,59.9843250478,Set,2017_12_20_2058,
"[2.8, 2.8]",3,0,24,24,14,,,,,16,0,16,0,right,0.425457838224,LZ,m,27,59.9843250478,Set,2017_12_20_2058,
"[2.8, 2.8]",3,0,24,24,14,,,,,17,0,17,0,right,0.508747026674,LZ,m,27,59.9843250478,Set,2017_12_20_2058,
"[2.8, 2.8]",3,0,24,24,14,,,,,18,0,18,0,right,0.475506430725,LZ,m,27,59.9843250478,Set,2017_12_20_2058,
"[2.8, 2.8]",3,0,24,24,14,,,,,19,0,19,0,right,0.808798184735,LZ,m,27,59.9843250478,Set,2017_12_20_2058,
"[2.8, 2.8]",3,0,24,24,14,,,,,20,0,20,0,right,0.358775724191,LZ,m,27,59.9843250478,Set,2017_12_20_2058,
"[2.8, 2.8]",3,0,24,24,14,,,,,21,0,21,0,right,0.542122623418,LZ,m,27,59.9843250478,Set,2017_12_20_2058,
"[2.8, 2.8]",3,0,24,24,14,,,,,22,0,22,0,down,0.542122228653,LZ,m,27,59.9843250478,Set,2017_12_20_2058,
"[2.8, 2.8]",3,0,24,24,14,,,,,23,0,23,0,down,0.608841842972,LZ,m,27,59.9843250478,Set,2017_12_20_2058,
"[2.8, 2.8]",3,0,24,24,14,,,,,24,0,24,0,left,0.425438496051,LZ,m,27,59.9843250478,Set,2017_12_20_2058,
"[2.8, 2.8]",3,0,24,24,14,,,,,25,0,25,0,left,0.375489377999,LZ,m,27,59.9843250478,Set,2017_12_20_2058,
"[2.8, 2.8]",3,0,24,24,14,,,,,26,0,26,0,down,0.542109202244,LZ,m,27,59.9843250478,Set,2017_12_20_2058,
"[2.8, 2.8]",3,0,24,24,14,,,,,27,0,27,0,down,0.742097517941,LZ,m,27,59.9843250478,Set,2017_12_20_2058,
"[2.9, 2.9]",5,0,25,25,22,,,,,0,0,0,0,down,0.358793092775,LZ,m,27,59.9843250478,Set,2017_12_20_2058,
"[2.9, 2.9]",5,0,25,25,22,,,,,1,0,1,0,down,0.908762342529,LZ,m,27,59.9843250478,Set,2017_12_20_2058,
"[2.6, 2.6]",5,0,26,26,4,,,,,0,0,0,0,down,0.533553624176,LZ,m,27,59.9843250478,Set,2017_12_20_2058,
"[2.6, 2.6]",5,0,26,26,4,,,,,1,0,1,0,down,0.591942661675,LZ,m,27,59.9843250478,Set,2017_12_20_2058,
"[2.8, 2.8]",4,0,27,27,15,,,,,0,0,0,0,down,0.683561637299,LZ,m,27,59.9843250478,Set,2017_12_20_2058,
"[2.8, 2.8]",4,0,27,27,15,,,,,1,0,1,0,down,1.31691204978,LZ,m,27,59.9843250478,Set,2017_12_20_2058,
"[2.6, 2.6]",6,0,28,28,5,,,,,0,0,0,0,down,0.858804145362,LZ,m,27,59.9843250478,Set,2017_12_20_2058,
"[2.6, 2.6]",6,0,28,28,5,,,,,1,0,1,0,down,0.742102254881,LZ,m,27,59.9843250478,Set,2017_12_20_2058,
"[2.6, 2.6]",2,0,29,29,1,,,,,0,0,0,0,down,0.4254562594,LZ,m,27,59.9843250478,Set,2017_12_20_2058,
"[2.6, 2.6]",2,0,29,29,1,,,,,1,0,1,0,down,0.375444377656,LZ,m,27,59.9843250478,Set,2017_12_20_2058,
