size,n,trials_2.thisRepN,trials_2.thisTrialN,trials_2.thisN,trials_2.thisIndex,trials.thisRepN,trials.thisTrialN,trials.thisN,trials.thisIndex,trials_3.thisRepN,trials_3.thisTrialN,trials_3.thisN,trials_3.thisIndex,answer.keys,answer.rt,participant,gender,age,frameRate,expName,date,
"[3.0, 3.0]",1,0,0,0,24,,,,,0,0,0,0,down,3.30021852767,MLAs,f,24,59.9937006274,Set,2017_12_21_1654,
"[3.0, 3.0]",1,0,0,0,24,,,,,1,0,1,0,down,1.81686310214,MLAs,f,24,59.9937006274,Set,2017_12_21_1654,
"[3.0, 3.0]",2,0,1,1,25,,,,,0,0,0,0,left,1.08357419004,MLAs,f,24,59.9937006274,Set,2017_12_21_1654,
"[3.0, 3.0]",2,0,1,1,25,,,,,1,0,1,0,down,1.08364879584,MLAs,f,24,59.9937006274,Set,2017_12_21_1654,
"[3.0, 3.0]",2,0,1,1,25,,,,,2,0,2,0,down,1.1335363345,MLAs,f,24,59.9937006274,Set,2017_12_21_1654,
"[2.9, 2.9]",2,0,2,2,19,,,,,0,0,0,0,left,1.08360892721,MLAs,f,24,59.9937006274,Set,2017_12_21_1654,
"[2.9, 2.9]",2,0,2,2,19,,,,,1,0,1,0,down,1.10023850144,MLAs,f,24,59.9937006274,Set,2017_12_21_1654,
"[2.9, 2.9]",2,0,2,2,19,,,,,2,0,2,0,down,1.050191488,MLAs,f,24,59.9937006274,Set,2017_12_21_1654,
"[2.6, 2.6]",3,0,3,3,2,,,,,0,0,0,0,down,1.13356357161,MLAs,f,24,59.9937006274,Set,2017_12_21_1654,
"[2.6, 2.6]",3,0,3,3,2,,,,,1,0,1,0,down,1.55023806717,MLAs,f,24,59.9937006274,Set,2017_12_21_1654,
"[3.0, 3.0]",3,0,4,4,26,,,,,0,0,0,0,left,2.31689783907,MLAs,f,24,59.9937006274,Set,2017_12_21_1654,
"[3.0, 3.0]",3,0,4,4,26,,,,,1,0,1,0,down,1.08357734792,MLAs,f,24,59.9937006274,Set,2017_12_21_1654,
"[3.0, 3.0]",3,0,4,4,26,,,,,2,0,2,0,down,2.78356329526,MLAs,f,24,59.9937006274,Set,2017_12_21_1654,
"[3.0, 3.0]",5,0,5,5,28,,,,,0,0,0,0,left,1.11688860215,MLAs,f,24,59.9937006274,Set,2017_12_21_1654,
"[3.0, 3.0]",5,0,5,5,28,,,,,1,0,1,0,left,1.30020984332,MLAs,f,24,59.9937006274,Set,2017_12_21_1654,
"[3.0, 3.0]",5,0,5,5,28,,,,,2,0,2,0,down,0.900232817279,MLAs,f,24,59.9937006274,Set,2017_12_21_1654,
"[3.0, 3.0]",5,0,5,5,28,,,,,3,0,3,0,down,0.966883352259,MLAs,f,24,59.9937006274,Set,2017_12_21_1654,
"[3.0, 3.0]",5,0,5,5,28,,,,,4,0,4,0,left,1.40022452769,MLAs,f,24,59.9937006274,Set,2017_12_21_1654,
"[3.0, 3.0]",5,0,5,5,28,,,,,5,0,5,0,down,1.81689310225,MLAs,f,24,59.9937006274,Set,2017_12_21_1654,
"[3.0, 3.0]",5,0,5,5,28,,,,,6,0,6,0,down,0.950251804199,MLAs,f,24,59.9937006274,Set,2017_12_21_1654,
"[3.0, 3.0]",5,0,5,5,28,,,,,7,0,7,0,left,1.0002368436,MLAs,f,24,59.9937006274,Set,2017_12_21_1654,
"[3.0, 3.0]",5,0,5,5,28,,,,,8,0,8,0,down,1.866886826,MLAs,f,24,59.9937006274,Set,2017_12_21_1654,
"[3.0, 3.0]",5,0,5,5,28,,,,,9,0,9,0,down,0.866918405052,MLAs,f,24,59.9937006274,Set,2017_12_21_1654,
"[2.6, 2.6]",2,0,6,6,1,,,,,0,0,0,0,down,1.20023660676,MLAs,f,24,59.9937006274,Set,2017_12_21_1654,
"[2.6, 2.6]",2,0,6,6,1,,,,,1,0,1,0,down,1.58366616431,MLAs,f,24,59.9937006274,Set,2017_12_21_1654,
"[2.9, 2.9]",4,0,7,7,21,,,,,0,0,0,0,left,1.08368787495,MLAs,f,24,59.9937006274,Set,2017_12_21_1654,
"[2.9, 2.9]",4,0,7,7,21,,,,,1,0,1,0,left,1.00025302789,MLAs,f,24,59.9937006274,Set,2017_12_21_1654,
"[2.9, 2.9]",4,0,7,7,21,,,,,2,0,2,0,left,0.933612756082,MLAs,f,24,59.9937006274,Set,2017_12_21_1654,
"[2.9, 2.9]",4,0,7,7,21,,,,,3,0,3,0,down,0.916890812689,MLAs,f,24,59.9937006274,Set,2017_12_21_1654,
"[2.9, 2.9]",4,0,7,7,21,,,,,4,0,4,0,down,1.483914771,MLAs,f,24,59.9937006274,Set,2017_12_21_1654,
"[2.6, 2.6]",4,0,8,8,3,,,,,0,0,0,0,down,1.13357501896,MLAs,f,24,59.9937006274,Set,2017_12_21_1654,
"[2.6, 2.6]",4,0,8,8,3,,,,,1,0,1,0,down,1.18354071619,MLAs,f,24,59.9937006274,Set,2017_12_21_1654,
"[2.8, 2.8]",6,0,9,9,17,,,,,0,0,0,0,left,1.36689116806,MLAs,f,24,59.9937006274,Set,2017_12_21_1654,
"[2.8, 2.8]",6,0,9,9,17,,,,,1,0,1,0,down,1.15020577761,MLAs,f,24,59.9937006274,Set,2017_12_21_1654,
"[2.8, 2.8]",6,0,9,9,17,,,,,2,0,2,0,right,0.866908536642,MLAs,f,24,59.9937006274,Set,2017_12_21_1654,
"[2.8, 2.8]",6,0,9,9,17,,,,,3,0,3,0,down,0.500248685712,MLAs,f,24,59.9937006274,Set,2017_12_21_1654,
"[2.8, 2.8]",6,0,9,9,17,,,,,4,0,4,0,left,0.700251606759,MLAs,f,24,59.9937006274,Set,2017_12_21_1654,
"[2.8, 2.8]",6,0,9,9,17,,,,,5,0,5,0,down,0.583563137334,MLAs,f,24,59.9937006274,Set,2017_12_21_1654,
"[2.8, 2.8]",6,0,9,9,17,,,,,6,0,6,0,left,0.58359826915,MLAs,f,24,59.9937006274,Set,2017_12_21_1654,
"[2.8, 2.8]",6,0,9,9,17,,,,,7,0,7,0,left,0.55020846182,MLAs,f,24,59.9937006274,Set,2017_12_21_1654,
"[2.8, 2.8]",6,0,9,9,17,,,,,8,0,8,0,left,0.550270041102,MLAs,f,24,59.9937006274,Set,2017_12_21_1654,
"[2.8, 2.8]",6,0,9,9,17,,,,,9,0,9,0,left,0.533526387182,MLAs,f,24,59.9937006274,Set,2017_12_21_1654,
"[2.8, 2.8]",6,0,9,9,17,,,,,10,0,10,0,left,0.650230251369,MLAs,f,24,59.9937006274,Set,2017_12_21_1654,
"[2.8, 2.8]",6,0,9,9,17,,,,,11,0,11,0,down,0.616926891846,MLAs,f,24,59.9937006274,Set,2017_12_21_1654,
"[2.8, 2.8]",6,0,9,9,17,,,,,12,0,12,0,down,0.650317883468,MLAs,f,24,59.9937006274,Set,2017_12_21_1654,
"[2.7, 2.7]",5,0,10,10,10,,,,,0,0,0,0,down,1.21707144543,MLAs,f,24,59.9937006274,Set,2017_12_21_1654,
"[2.7, 2.7]",5,0,10,10,10,,,,,1,0,1,0,down,1.25022440928,MLAs,f,24,59.9937006274,Set,2017_12_21_1654,
"[2.6, 2.6]",6,0,11,11,5,,,,,0,0,0,0,right,1.78356329515,MLAs,f,24,59.9937006274,Set,2017_12_21_1654,
"[2.6, 2.6]",6,0,11,11,5,,,,,1,0,1,0,down,0.416891602217,MLAs,f,24,59.9937006274,Set,2017_12_21_1654,
"[2.6, 2.6]",6,0,11,11,5,,,,,2,0,2,0,down,0.400252948864,MLAs,f,24,59.9937006274,Set,2017_12_21_1654,
"[2.6, 2.6]",6,0,11,11,5,,,,,3,0,3,0,right,0.53358322964,MLAs,f,24,59.9937006274,Set,2017_12_21_1654,
"[2.6, 2.6]",6,0,11,11,5,,,,,4,0,4,0,down,0.450245093554,MLAs,f,24,59.9937006274,Set,2017_12_21_1654,
"[2.6, 2.6]",6,0,11,11,5,,,,,5,0,5,0,left,1.33357201901,MLAs,f,24,59.9937006274,Set,2017_12_21_1654,
"[2.6, 2.6]",6,0,11,11,5,,,,,6,0,6,0,down,0.36690893129,MLAs,f,24,59.9937006274,Set,2017_12_21_1654,
"[2.6, 2.6]",6,0,11,11,5,,,,,7,0,7,0,down,0.383559821523,MLAs,f,24,59.9937006274,Set,2017_12_21_1654,
"[2.9, 2.9]",3,0,12,12,20,,,,,0,0,0,0,left,1.35033738357,MLAs,f,24,59.9937006274,Set,2017_12_21_1654,
"[2.9, 2.9]",3,0,12,12,20,,,,,1,0,1,0,down,0.783434610232,MLAs,f,24,59.9937006274,Set,2017_12_21_1654,
"[2.9, 2.9]",3,0,12,12,20,,,,,2,0,2,0,down,0.666897325893,MLAs,f,24,59.9937006274,Set,2017_12_21_1654,
"[2.9, 2.9]",1,0,13,13,18,,,,,0,0,0,0,left,1.21679749642,MLAs,f,24,59.9937006274,Set,2017_12_21_1654,
"[2.9, 2.9]",1,0,13,13,18,,,,,1,0,1,0,down,0.46691532596,MLAs,f,24,59.9937006274,Set,2017_12_21_1654,
"[2.9, 2.9]",1,0,13,13,18,,,,,2,0,2,0,down,0.433566966327,MLAs,f,24,59.9937006274,Set,2017_12_21_1654,
"[2.9, 2.9]",1,0,13,13,18,,,,,3,0,3,0,right,0.466894010198,MLAs,f,24,59.9937006274,Set,2017_12_21_1654,
"[2.9, 2.9]",1,0,13,13,18,,,,,4,0,4,0,left,0.583576558507,MLAs,f,24,59.9937006274,Set,2017_12_21_1654,
"[2.9, 2.9]",1,0,13,13,18,,,,,5,0,5,0,left,0.616893339087,MLAs,f,24,59.9937006274,Set,2017_12_21_1654,
"[2.9, 2.9]",1,0,13,13,18,,,,,6,0,6,0,down,0.350229225005,MLAs,f,24,59.9937006274,Set,2017_12_21_1654,
"[2.9, 2.9]",1,0,13,13,18,,,,,7,0,7,0,down,0.500235659303,MLAs,f,24,59.9937006274,Set,2017_12_21_1654,
"[2.8, 2.8]",4,0,14,14,15,,,,,0,0,0,0,left,1.71688394435,MLAs,f,24,59.9937006274,Set,2017_12_21_1654,
"[2.8, 2.8]",4,0,14,14,15,,,,,1,0,1,0,left,0.533598229755,MLAs,f,24,59.9937006274,Set,2017_12_21_1654,
"[2.8, 2.8]",4,0,14,14,15,,,,,2,0,2,0,down,0.400241501513,MLAs,f,24,59.9937006274,Set,2017_12_21_1654,
"[2.8, 2.8]",4,0,14,14,15,,,,,3,0,3,0,down,0.583596690209,MLAs,f,24,59.9937006274,Set,2017_12_21_1654,
"[2.8, 2.8]",4,0,14,14,15,,,,,4,0,4,0,left,0.466912168195,MLAs,f,24,59.9937006274,Set,2017_12_21_1654,
"[2.8, 2.8]",4,0,14,14,15,,,,,5,0,5,0,down,0.483562268899,MLAs,f,24,59.9937006274,Set,2017_12_21_1654,
"[2.8, 2.8]",4,0,14,14,15,,,,,6,0,6,0,down,0.533575729583,MLAs,f,24,59.9937006274,Set,2017_12_21_1654,
"[2.8, 2.8]",3,0,15,15,14,,,,,0,0,0,0,left,1.16691193124,MLAs,f,24,59.9937006274,Set,2017_12_21_1654,
"[2.8, 2.8]",3,0,15,15,14,,,,,1,0,1,0,down,0.400250975275,MLAs,f,24,59.9937006274,Set,2017_12_21_1654,
"[2.8, 2.8]",3,0,15,15,14,,,,,2,0,2,0,down,0.466920852428,MLAs,f,24,59.9937006274,Set,2017_12_21_1654,
"[3.0, 3.0]",6,0,16,16,29,,,,,0,0,0,0,down,1.25022361986,MLAs,f,24,59.9937006274,Set,2017_12_21_1654,
"[3.0, 3.0]",6,0,16,16,29,,,,,1,0,1,0,left,0.700253975228,MLAs,f,24,59.9937006274,Set,2017_12_21_1654,
"[3.0, 3.0]",6,0,16,16,29,,,,,2,0,2,0,down,0.350248172646,MLAs,f,24,59.9937006274,Set,2017_12_21_1654,
"[3.0, 3.0]",6,0,16,16,29,,,,,3,0,3,0,down,0.45023009344,MLAs,f,24,59.9937006274,Set,2017_12_21_1654,
"[2.7, 2.7]",1,0,17,17,6,,,,,0,0,0,0,down,0.73355299246,MLAs,f,24,59.9937006274,Set,2017_12_21_1654,
"[2.7, 2.7]",1,0,17,17,6,,,,,1,0,1,0,down,0.350236330414,MLAs,f,24,59.9937006274,Set,2017_12_21_1654,
"[2.6, 2.6]",1,0,18,18,0,,,,,0,0,0,0,down,1.63353672926,MLAs,f,24,59.9937006274,Set,2017_12_21_1654,
"[2.6, 2.6]",1,0,18,18,0,,,,,1,0,1,0,right,1.03356349259,MLAs,f,24,59.9937006274,Set,2017_12_21_1654,
"[2.6, 2.6]",1,0,18,18,0,,,,,2,0,2,0,down,0.500094342628,MLAs,f,24,59.9937006274,Set,2017_12_21_1654,
"[2.6, 2.6]",1,0,18,18,0,,,,,3,0,3,0,down,0.416722259019,MLAs,f,24,59.9937006274,Set,2017_12_21_1654,
"[2.7, 2.7]",4,0,19,19,9,,,,,0,0,0,0,down,1.5668779047,MLAs,f,24,59.9937006274,Set,2017_12_21_1654,
"[2.7, 2.7]",4,0,19,19,9,,,,,1,0,1,0,down,0.416897128569,MLAs,f,24,59.9937006274,Set,2017_12_21_1654,
"[2.9, 2.9]",5,0,20,20,22,,,,,0,0,0,0,down,0.5502206987,MLAs,f,24,59.9937006274,Set,2017_12_21_1654,
"[2.9, 2.9]",5,0,20,20,22,,,,,1,0,1,0,right,1.31688599696,MLAs,f,24,59.9937006274,Set,2017_12_21_1654,
"[2.9, 2.9]",5,0,20,20,22,,,,,2,0,2,0,down,0.350234356709,MLAs,f,24,59.9937006274,Set,2017_12_21_1654,
"[2.9, 2.9]",5,0,20,20,22,,,,,3,0,3,0,down,0.233560492634,MLAs,f,24,59.9937006274,Set,2017_12_21_1654,
"[2.7, 2.7]",3,0,21,21,8,,,,,0,0,0,0,down,0.550240830402,MLAs,f,24,59.9937006274,Set,2017_12_21_1654,
"[2.7, 2.7]",3,0,21,21,8,,,,,1,0,1,0,down,0.500286580762,MLAs,f,24,59.9937006274,Set,2017_12_21_1654,
"[3.0, 3.0]",4,0,22,22,27,,,,,0,0,0,0,left,1.60024323827,MLAs,f,24,59.9937006274,Set,2017_12_21_1654,
"[3.0, 3.0]",4,0,22,22,27,,,,,1,0,1,0,down,0.450058776652,MLAs,f,24,59.9937006274,Set,2017_12_21_1654,
"[3.0, 3.0]",4,0,22,22,27,,,,,2,0,2,0,down,0.233584571746,MLAs,f,24,59.9937006274,Set,2017_12_21_1654,
"[2.8, 2.8]",2,0,23,23,13,,,,,0,0,0,0,down,0.666915484006,MLAs,f,24,59.9937006274,Set,2017_12_21_1654,
"[2.8, 2.8]",2,0,23,23,13,,,,,1,0,1,0,down,0.46689322067,MLAs,f,24,59.9937006274,Set,2017_12_21_1654,
"[2.8, 2.8]",2,0,23,23,13,,,,,2,0,2,0,left,0.750232698745,MLAs,f,24,59.9937006274,Set,2017_12_21_1654,
"[2.8, 2.8]",2,0,23,23,13,,,,,3,0,3,0,down,0.516901944415,MLAs,f,24,59.9937006274,Set,2017_12_21_1654,
"[2.8, 2.8]",2,0,23,23,13,,,,,4,0,4,0,down,0.250237830449,MLAs,f,24,59.9937006274,Set,2017_12_21_1654,
"[2.8, 2.8]",2,0,23,23,13,,,,,5,0,5,0,left,0.916906207567,MLAs,f,24,59.9937006274,Set,2017_12_21_1654,
"[2.8, 2.8]",2,0,23,23,13,,,,,6,0,6,0,down,0.516903128591,MLAs,f,24,59.9937006274,Set,2017_12_21_1654,
"[2.8, 2.8]",2,0,23,23,13,,,,,7,0,7,0,left,0.983561479487,MLAs,f,24,59.9937006274,Set,2017_12_21_1654,
"[2.8, 2.8]",2,0,23,23,13,,,,,8,0,8,0,down,0.450071803061,MLAs,f,24,59.9937006274,Set,2017_12_21_1654,
"[2.8, 2.8]",2,0,23,23,13,,,,,9,0,9,0,down,0.383546005702,MLAs,f,24,59.9937006274,Set,2017_12_21_1654,
"[2.6, 2.6]",5,0,24,24,4,,,,,0,0,0,0,right,1.90021268546,MLAs,f,24,59.9937006274,Set,2017_12_21_1654,
"[2.6, 2.6]",5,0,24,24,4,,,,,1,0,1,0,right,0.716910391813,MLAs,f,24,59.9937006274,Set,2017_12_21_1654,
"[2.6, 2.6]",5,0,24,24,4,,,,,2,0,2,0,down,0.483571742661,MLAs,f,24,59.9937006274,Set,2017_12_21_1654,
"[2.6, 2.6]",5,0,24,24,4,,,,,3,0,3,0,right,2.23355220305,MLAs,f,24,59.9937006274,Set,2017_12_21_1654,
"[2.6, 2.6]",5,0,24,24,4,,,,,4,0,4,0,down,0.83356530848,MLAs,f,24,59.9937006274,Set,2017_12_21_1654,
"[2.6, 2.6]",5,0,24,24,4,,,,,5,0,5,0,down,0.583559979452,MLAs,f,24,59.9937006274,Set,2017_12_21_1654,
"[2.9, 2.9]",6,0,25,25,23,,,,,0,0,0,0,down,0.583568663686,MLAs,f,24,59.9937006274,Set,2017_12_21_1654,
"[2.9, 2.9]",6,0,25,25,23,,,,,1,0,1,0,down,0.383581137517,MLAs,f,24,59.9937006274,Set,2017_12_21_1654,
"[2.8, 2.8]",1,0,26,26,12,,,,,0,0,0,0,down,0.766887536389,MLAs,f,24,59.9937006274,Set,2017_12_21_1654,
"[2.8, 2.8]",1,0,26,26,12,,,,,1,0,1,0,down,0.433563018916,MLAs,f,24,59.9937006274,Set,2017_12_21_1654,
"[2.7, 2.7]",2,0,27,27,7,,,,,0,0,0,0,down,1.06690040487,MLAs,f,24,59.9937006274,Set,2017_12_21_1654,
"[2.7, 2.7]",2,0,27,27,7,,,,,1,0,1,0,down,0.750226777629,MLAs,f,24,59.9937006274,Set,2017_12_21_1654,
"[2.7, 2.7]",6,0,28,28,11,,,,,0,0,0,0,down,0.733564834693,MLAs,f,24,59.9937006274,Set,2017_12_21_1654,
"[2.7, 2.7]",6,0,28,28,11,,,,,1,0,1,0,down,0.566888957401,MLAs,f,24,59.9937006274,Set,2017_12_21_1654,
"[2.8, 2.8]",5,0,29,29,16,,,,,0,0,0,0,down,0.866897483938,MLAs,f,24,59.9937006274,Set,2017_12_21_1654,
"[2.8, 2.8]",5,0,29,29,16,,,,,1,0,1,0,down,0.416901470744,MLAs,f,24,59.9937006274,Set,2017_12_21_1654,
