size,n,trials_2.thisRepN,trials_2.thisTrialN,trials_2.thisN,trials_2.thisIndex,trials.thisRepN,trials.thisTrialN,trials.thisN,trials.thisIndex,trials_3.thisRepN,trials_3.thisTrialN,trials_3.thisN,trials_3.thisIndex,answer.keys,answer.rt,participant,gender,age,frameRate,expName,date,
"[2.6, 2.6]",6,0,0,0,5,,,,,0,0,0,0,down,3.52542949602,NG,f,22,60.0049267563,Set,2017_12_15_1718,
"[2.6, 2.6]",6,0,0,0,5,,,,,1,0,1,0,down,1.04210367586,NG,f,22,60.0049267563,Set,2017_12_15_1718,
"[2.6, 2.6]",5,0,1,1,4,,,,,0,0,0,0,down,0.858620196901,NG,f,22,60.0049267563,Set,2017_12_15_1718,
"[2.6, 2.6]",5,0,1,1,4,,,,,1,0,1,0,down,0.825490917428,NG,f,22,60.0049267563,Set,2017_12_15_1718,
"[2.6, 2.6]",5,0,1,1,4,,,,,2,0,2,0,left,1.39211500491,NG,f,22,60.0049267563,Set,2017_12_15_1718,
"[2.6, 2.6]",5,0,1,1,4,,,,,3,0,3,0,left,0.842137465574,NG,f,22,60.0049267563,Set,2017_12_15_1718,
"[2.6, 2.6]",5,0,1,1,4,,,,,4,0,4,0,left,0.675463562016,NG,f,22,60.0049267563,Set,2017_12_15_1718,
"[2.6, 2.6]",5,0,1,1,4,,,,,5,0,5,0,left,0.592117531254,NG,f,22,60.0049267563,Set,2017_12_15_1718,
"[2.6, 2.6]",5,0,1,1,4,,,,,6,0,6,0,down,0.792109004862,NG,f,22,60.0049267563,Set,2017_12_15_1718,
"[2.6, 2.6]",5,0,1,1,4,,,,,7,0,7,0,down,0.908838132425,NG,f,22,60.0049267563,Set,2017_12_15_1718,
"[2.6, 2.6]",5,0,1,1,4,,,,,8,0,8,0,left,0.842134307662,NG,f,22,60.0049267563,Set,2017_12_15_1718,
"[2.6, 2.6]",5,0,1,1,4,,,,,9,0,9,0,down,0.9754874832,NG,f,22,60.0049267563,Set,2017_12_15_1718,
"[2.6, 2.6]",5,0,1,1,4,,,,,10,0,10,0,left,1.37546332515,NG,f,22,60.0049267563,Set,2017_12_15_1718,
"[2.6, 2.6]",5,0,1,1,4,,,,,11,0,11,0,left,0.858617433725,NG,f,22,60.0049267563,Set,2017_12_15_1718,
"[2.6, 2.6]",5,0,1,1,4,,,,,12,0,12,0,left,0.725432811829,NG,f,22,60.0049267563,Set,2017_12_15_1718,
"[2.6, 2.6]",5,0,1,1,4,,,,,13,0,13,0,left,0.842104307492,NG,f,22,60.0049267563,Set,2017_12_15_1718,
"[2.6, 2.6]",5,0,1,1,4,,,,,14,0,14,0,left,0.558783776854,NG,f,22,60.0049267563,Set,2017_12_15_1718,
"[2.6, 2.6]",5,0,1,1,4,,,,,15,0,15,0,down,0.742130676052,NG,f,22,60.0049267563,Set,2017_12_15_1718,
"[2.6, 2.6]",5,0,1,1,4,,,,,16,0,16,0,down,0.758800119045,NG,f,22,60.0049267563,Set,2017_12_15_1718,
"[3.0, 3.0]",2,0,2,2,25,,,,,0,0,0,0,down,1.47545550935,NG,f,22,60.0049267563,Set,2017_12_15_1718,
"[3.0, 3.0]",2,0,2,2,25,,,,,1,0,1,0,left,0.925478759484,NG,f,22,60.0049267563,Set,2017_12_15_1718,
"[3.0, 3.0]",2,0,2,2,25,,,,,2,0,2,0,left,0.708631920657,NG,f,22,60.0049267563,Set,2017_12_15_1718,
"[3.0, 3.0]",2,0,2,2,25,,,,,3,0,3,0,down,0.608819342859,NG,f,22,60.0049267563,Set,2017_12_15_1718,
"[3.0, 3.0]",2,0,2,2,25,,,,,4,0,4,0,down,1.09215068934,NG,f,22,60.0049267563,Set,2017_12_15_1718,
"[2.8, 2.8]",1,0,3,3,12,,,,,0,0,0,0,down,1.30021655394,NG,f,22,60.0049267563,Set,2017_12_15_1718,
"[2.8, 2.8]",1,0,3,3,12,,,,,1,0,1,0,right,1.4421154391,NG,f,22,60.0049267563,Set,2017_12_15_1718,
"[2.8, 2.8]",1,0,3,3,12,,,,,2,0,2,0,down,1.07545598302,NG,f,22,60.0049267563,Set,2017_12_15_1718,
"[2.8, 2.8]",1,0,3,3,12,,,,,3,0,3,0,down,0.958767118835,NG,f,22,60.0049267563,Set,2017_12_15_1718,
"[2.7, 2.7]",1,0,4,4,6,,,,,0,0,0,0,left,1.04212420233,NG,f,22,60.0049267563,Set,2017_12_15_1718,
"[2.7, 2.7]",1,0,4,4,6,,,,,1,0,1,0,down,0.942111886456,NG,f,22,60.0049267563,Set,2017_12_15_1718,
"[2.7, 2.7]",1,0,4,4,6,,,,,2,0,2,0,down,0.642092307418,NG,f,22,60.0049267563,Set,2017_12_15_1718,
"[2.9, 2.9]",2,0,5,5,19,,,,,0,0,0,0,left,0.983658980025,NG,f,22,60.0049267563,Set,2017_12_15_1718,
"[2.9, 2.9]",2,0,5,5,19,,,,,1,0,1,0,down,1.24211804441,NG,f,22,60.0049267563,Set,2017_12_15_1718,
"[2.9, 2.9]",2,0,5,5,19,,,,,2,0,2,0,left,0.742123175994,NG,f,22,60.0049267563,Set,2017_12_15_1718,
"[2.9, 2.9]",2,0,5,5,19,,,,,3,0,3,0,right,0.742149623547,NG,f,22,60.0049267563,Set,2017_12_15_1718,
"[2.9, 2.9]",2,0,5,5,19,,,,,4,0,4,0,right,0.842075491528,NG,f,22,60.0049267563,Set,2017_12_15_1718,
"[2.9, 2.9]",2,0,5,5,19,,,,,5,0,5,0,down,0.592121873371,NG,f,22,60.0049267563,Set,2017_12_15_1718,
"[2.9, 2.9]",2,0,5,5,19,,,,,6,0,6,0,down,0.592080820468,NG,f,22,60.0049267563,Set,2017_12_15_1718,
"[2.7, 2.7]",5,0,6,6,10,,,,,0,0,0,0,left,0.758798540104,NG,f,22,60.0049267563,Set,2017_12_15_1718,
"[2.7, 2.7]",5,0,6,6,10,,,,,1,0,1,0,down,0.875433719717,NG,f,22,60.0049267563,Set,2017_12_15_1718,
"[2.7, 2.7]",5,0,6,6,10,,,,,2,0,2,0,left,1.17543908817,NG,f,22,60.0049267563,Set,2017_12_15_1718,
"[2.7, 2.7]",5,0,6,6,10,,,,,3,0,3,0,down,0.575450851407,NG,f,22,60.0049267563,Set,2017_12_15_1718,
"[2.7, 2.7]",5,0,6,6,10,,,,,4,0,4,0,down,0.375454640918,NG,f,22,60.0049267563,Set,2017_12_15_1718,
"[2.7, 2.7]",5,0,6,6,10,,,,,5,0,5,0,left,0.842105096963,NG,f,22,60.0049267563,Set,2017_12_15_1718,
"[2.7, 2.7]",5,0,6,6,10,,,,,6,0,6,0,down,0.708800079563,NG,f,22,60.0049267563,Set,2017_12_15_1718,
"[2.7, 2.7]",5,0,6,6,10,,,,,7,0,7,0,down,0.508791237429,NG,f,22,60.0049267563,Set,2017_12_15_1718,
"[2.7, 2.7]",5,0,6,6,10,,,,,8,0,8,0,left,0.675482114748,NG,f,22,60.0049267563,Set,2017_12_15_1718,
"[2.7, 2.7]",5,0,6,6,10,,,,,9,0,9,0,left,1.10880631648,NG,f,22,60.0049267563,Set,2017_12_15_1718,
"[2.7, 2.7]",5,0,6,6,10,,,,,10,0,10,0,down,1.06687672055,NG,f,22,60.0049267563,Set,2017_12_15_1718,
"[2.7, 2.7]",5,0,6,6,10,,,,,11,0,11,0,left,1.04212064968,NG,f,22,60.0049267563,Set,2017_12_15_1718,
"[2.7, 2.7]",5,0,6,6,10,,,,,12,0,12,0,right,0.825454996171,NG,f,22,60.0049267563,Set,2017_12_15_1718,
"[2.7, 2.7]",5,0,6,6,10,,,,,13,0,13,0,left,0.892129215528,NG,f,22,60.0049267563,Set,2017_12_15_1718,
"[2.7, 2.7]",5,0,6,6,10,,,,,14,0,14,0,down,0.842121675989,NG,f,22,60.0049267563,Set,2017_12_15_1718,
"[2.7, 2.7]",5,0,6,6,10,,,,,15,0,15,0,left,0.825429732853,NG,f,22,60.0049267563,Set,2017_12_15_1718,
"[2.7, 2.7]",5,0,6,6,10,,,,,16,0,16,0,down,0.65879688217,NG,f,22,60.0049267563,Set,2017_12_15_1718,
"[2.7, 2.7]",5,0,6,6,10,,,,,17,0,17,0,left,0.792106241686,NG,f,22,60.0049267563,Set,2017_12_15_1718,
"[2.7, 2.7]",5,0,6,6,10,,,,,18,0,18,0,down,0.608797632216,NG,f,22,60.0049267563,Set,2017_12_15_1718,
"[2.7, 2.7]",5,0,6,6,10,,,,,19,0,19,0,down,0.758776829432,NG,f,22,60.0049267563,Set,2017_12_15_1718,
"[3.0, 3.0]",4,0,7,7,27,,,,,0,0,0,0,down,0.650251567306,NG,f,22,60.0049267563,Set,2017_12_15_1718,
"[3.0, 3.0]",4,0,7,7,27,,,,,1,0,1,0,left,0.825436838175,NG,f,22,60.0049267563,Set,2017_12_15_1718,
"[3.0, 3.0]",4,0,7,7,27,,,,,2,0,2,0,down,0.858789145306,NG,f,22,60.0049267563,Set,2017_12_15_1718,
"[3.0, 3.0]",4,0,7,7,27,,,,,3,0,3,0,down,0.77544587772,NG,f,22,60.0049267563,Set,2017_12_15_1718,
"[2.8, 2.8]",5,0,8,8,16,,,,,0,0,0,0,down,0.742111333821,NG,f,22,60.0049267563,Set,2017_12_15_1718,
"[2.8, 2.8]",5,0,8,8,16,,,,,1,0,1,0,down,0.525465022569,NG,f,22,60.0049267563,Set,2017_12_15_1718,
"[2.8, 2.8]",4,0,9,9,15,,,,,0,0,0,0,left,0.816885602195,NG,f,22,60.0049267563,Set,2017_12_15_1718,
"[2.8, 2.8]",4,0,9,9,15,,,,,1,0,1,0,down,0.658804382227,NG,f,22,60.0049267563,Set,2017_12_15_1718,
"[2.8, 2.8]",4,0,9,9,15,,,,,2,0,2,0,down,0.475457088294,NG,f,22,60.0049267563,Set,2017_12_15_1718,
"[2.9, 2.9]",1,0,10,10,18,,,,,0,0,0,0,down,0.675448956667,NG,f,22,60.0049267563,Set,2017_12_15_1718,
"[2.9, 2.9]",1,0,10,10,18,,,,,1,0,1,0,down,0.542136833974,NG,f,22,60.0049267563,Set,2017_12_15_1718,
"[2.6, 2.6]",2,0,11,11,1,,,,,0,0,0,0,down,0.50879360587,NG,f,22,60.0049267563,Set,2017_12_15_1718,
"[2.6, 2.6]",2,0,11,11,1,,,,,1,0,1,0,down,0.742161465721,NG,f,22,60.0049267563,Set,2017_12_15_1718,
"[2.8, 2.8]",2,0,12,12,13,,,,,0,0,0,0,left,0.625486022676,NG,f,22,60.0049267563,Set,2017_12_15_1718,
"[2.8, 2.8]",2,0,12,12,13,,,,,1,0,1,0,right,1.15879490849,NG,f,22,60.0049267563,Set,2017_12_15_1718,
"[2.8, 2.8]",2,0,12,12,13,,,,,2,0,2,0,down,0.950241935672,NG,f,22,60.0049267563,Set,2017_12_15_1718,
"[2.8, 2.8]",2,0,12,12,13,,,,,3,0,3,0,left,0.892116583855,NG,f,22,60.0049267563,Set,2017_12_15_1718,
"[2.8, 2.8]",2,0,12,12,13,,,,,4,0,4,0,down,0.708766132011,NG,f,22,60.0049267563,Set,2017_12_15_1718,
"[2.8, 2.8]",2,0,12,12,13,,,,,5,0,5,0,down,0.57555111518,NG,f,22,60.0049267563,Set,2017_12_15_1718,
"[2.8, 2.8]",2,0,12,12,13,,,,,6,0,6,0,left,0.692113268044,NG,f,22,60.0049267563,Set,2017_12_15_1718,
"[2.8, 2.8]",2,0,12,12,13,,,,,7,0,7,0,down,0.808801737498,NG,f,22,60.0049267563,Set,2017_12_15_1718,
"[2.8, 2.8]",2,0,12,12,13,,,,,8,0,8,0,left,0.54208038628,NG,f,22,60.0049267563,Set,2017_12_15_1718,
"[2.8, 2.8]",2,0,12,12,13,,,,,9,0,9,0,down,0.525449627719,NG,f,22,60.0049267563,Set,2017_12_15_1718,
"[2.8, 2.8]",2,0,12,12,13,,,,,10,0,10,0,down,0.525461075158,NG,f,22,60.0049267563,Set,2017_12_15_1718,
"[3.0, 3.0]",6,0,13,13,29,,,,,0,0,0,0,down,0.72546518044,NG,f,22,60.0049267563,Set,2017_12_15_1718,
"[3.0, 3.0]",6,0,13,13,29,,,,,1,0,1,0,left,1.52545831198,NG,f,22,60.0049267563,Set,2017_12_15_1718,
"[3.0, 3.0]",6,0,13,13,29,,,,,2,0,2,0,down,0.642124281294,NG,f,22,60.0049267563,Set,2017_12_15_1718,
"[3.0, 3.0]",6,0,13,13,29,,,,,3,0,3,0,down,0.742114096996,NG,f,22,60.0049267563,Set,2017_12_15_1718,
"[2.6, 2.6]",4,0,14,14,3,,,,,0,0,0,0,down,0.47544287768,NG,f,22,60.0049267563,Set,2017_12_15_1718,
"[2.6, 2.6]",4,0,14,14,3,,,,,1,0,1,0,left,0.958791592682,NG,f,22,60.0049267563,Set,2017_12_15_1718,
"[2.6, 2.6]",4,0,14,14,3,,,,,2,0,2,0,down,0.525457127776,NG,f,22,60.0049267563,Set,2017_12_15_1718,
"[2.6, 2.6]",4,0,14,14,3,,,,,3,0,3,0,down,0.625445759273,NG,f,22,60.0049267563,Set,2017_12_15_1718,
"[2.6, 2.6]",3,0,15,15,2,,,,,0,0,0,0,left,0.716912760254,NG,f,22,60.0049267563,Set,2017_12_15_1718,
"[2.6, 2.6]",3,0,15,15,2,,,,,1,0,1,0,down,0.575463877816,NG,f,22,60.0049267563,Set,2017_12_15_1718,
"[2.6, 2.6]",3,0,15,15,2,,,,,2,0,2,0,down,0.558778645238,NG,f,22,60.0049267563,Set,2017_12_15_1718,
"[2.8, 2.8]",3,0,16,16,14,,,,,0,0,0,0,left,0.492226795031,NG,f,22,60.0049267563,Set,2017_12_15_1718,
"[2.8, 2.8]",3,0,16,16,14,,,,,1,0,1,0,down,0.725473469967,NG,f,22,60.0049267563,Set,2017_12_15_1718,
"[2.8, 2.8]",3,0,16,16,14,,,,,2,0,2,0,left,0.708787447918,NG,f,22,60.0049267563,Set,2017_12_15_1718,
"[2.8, 2.8]",3,0,16,16,14,,,,,3,0,3,0,down,0.675505404361,NG,f,22,60.0049267563,Set,2017_12_15_1718,
"[2.8, 2.8]",3,0,16,16,14,,,,,4,0,4,0,left,0.975436167122,NG,f,22,60.0049267563,Set,2017_12_15_1718,
"[2.8, 2.8]",3,0,16,16,14,,,,,5,0,5,0,down,0.750228751393,NG,f,22,60.0049267563,Set,2017_12_15_1718,
"[2.8, 2.8]",3,0,16,16,14,,,,,6,0,6,0,down,0.392161189404,NG,f,22,60.0049267563,Set,2017_12_15_1718,
"[2.8, 2.8]",3,0,16,16,14,,,,,7,0,7,0,left,0.608833948179,NG,f,22,60.0049267563,Set,2017_12_15_1718,
"[2.8, 2.8]",3,0,16,16,14,,,,,8,0,8,0,left,0.742118439142,NG,f,22,60.0049267563,Set,2017_12_15_1718,
"[2.8, 2.8]",3,0,16,16,14,,,,,9,0,9,0,right,0.725448996149,NG,f,22,60.0049267563,Set,2017_12_15_1718,
"[2.8, 2.8]",3,0,16,16,14,,,,,10,0,10,0,left,0.592115557549,NG,f,22,60.0049267563,Set,2017_12_15_1718,
"[2.8, 2.8]",3,0,16,16,14,,,,,11,0,11,0,down,0.725429653918,NG,f,22,60.0049267563,Set,2017_12_15_1718,
"[2.8, 2.8]",3,0,16,16,14,,,,,12,0,12,0,down,0.592128583929,NG,f,22,60.0049267563,Set,2017_12_15_1718,
"[2.9, 2.9]",6,0,17,17,23,,,,,0,0,0,0,left,0.675489614805,NG,f,22,60.0049267563,Set,2017_12_15_1718,
"[2.9, 2.9]",6,0,17,17,23,,,,,1,0,1,0,down,0.692116031249,NG,f,22,60.0049267563,Set,2017_12_15_1718,
"[2.9, 2.9]",6,0,17,17,23,,,,,2,0,2,0,down,0.858604407316,NG,f,22,60.0049267563,Set,2017_12_15_1718,
"[2.9, 2.9]",6,0,17,17,23,,,,,3,0,3,0,left,0.592063846678,NG,f,22,60.0049267563,Set,2017_12_15_1718,
"[2.9, 2.9]",6,0,17,17,23,,,,,4,0,4,0,down,0.458810934913,NG,f,22,60.0049267563,Set,2017_12_15_1718,
"[2.9, 2.9]",6,0,17,17,23,,,,,5,0,5,0,down,0.692114847014,NG,f,22,60.0049267563,Set,2017_12_15_1718,
"[2.7, 2.7]",6,0,18,18,11,,,,,0,0,0,0,down,0.525469364686,NG,f,22,60.0049267563,Set,2017_12_15_1718,
"[2.7, 2.7]",6,0,18,18,11,,,,,1,0,1,0,down,0.475419193332,NG,f,22,60.0049267563,Set,2017_12_15_1718,
"[2.8, 2.8]",6,0,19,19,17,,,,,0,0,0,0,down,0.625485233177,NG,f,22,60.0049267563,Set,2017_12_15_1718,
"[2.8, 2.8]",6,0,19,19,17,,,,,1,0,1,0,left,0.675445403991,NG,f,22,60.0049267563,Set,2017_12_15_1718,
"[2.8, 2.8]",6,0,19,19,17,,,,,2,0,2,0,left,0.625487996382,NG,f,22,60.0049267563,Set,2017_12_15_1718,
"[2.8, 2.8]",6,0,19,19,17,,,,,3,0,3,0,down,0.492161268339,NG,f,22,60.0049267563,Set,2017_12_15_1718,
"[2.8, 2.8]",6,0,19,19,17,,,,,4,0,4,0,down,0.825439996086,NG,f,22,60.0049267563,Set,2017_12_15_1718,
"[2.8, 2.8]",6,0,19,19,17,,,,,5,0,5,0,right,0.708789026859,NG,f,22,60.0049267563,Set,2017_12_15_1718,
"[2.8, 2.8]",6,0,19,19,17,,,,,6,0,6,0,left,0.541949332837,NG,f,22,60.0049267563,Set,2017_12_15_1718,
"[2.8, 2.8]",6,0,19,19,17,,,,,7,0,7,0,down,0.492143899814,NG,f,22,60.0049267563,Set,2017_12_15_1718,
"[2.8, 2.8]",6,0,19,19,17,,,,,8,0,8,0,down,0.541975385626,NG,f,22,60.0049267563,Set,2017_12_15_1718,
"[3.0, 3.0]",3,0,20,20,26,,,,,0,0,0,0,left,0.466915720812,NG,f,22,60.0049267563,Set,2017_12_15_1718,
"[3.0, 3.0]",3,0,20,20,26,,,,,1,0,1,0,down,0.475466956763,NG,f,22,60.0049267563,Set,2017_12_15_1718,
"[3.0, 3.0]",3,0,20,20,26,,,,,2,0,2,0,down,0.508793211106,NG,f,22,60.0049267563,Set,2017_12_15_1718,
"[3.0, 3.0]",3,0,20,20,26,,,,,3,0,3,0,right,0.442134781333,NG,f,22,60.0049267563,Set,2017_12_15_1718,
"[3.0, 3.0]",3,0,20,20,26,,,,,4,0,4,0,down,0.625395232666,NG,f,22,60.0049267563,Set,2017_12_15_1718,
"[3.0, 3.0]",3,0,20,20,26,,,,,5,0,5,0,down,0.458797513769,NG,f,22,60.0049267563,Set,2017_12_15_1718,
"[2.6, 2.6]",1,0,21,21,0,,,,,0,0,0,0,down,0.525453180395,NG,f,22,60.0049267563,Set,2017_12_15_1718,
"[2.6, 2.6]",1,0,21,21,0,,,,,1,0,1,0,left,0.583664585341,NG,f,22,60.0049267563,Set,2017_12_15_1718,
"[2.6, 2.6]",1,0,21,21,0,,,,,2,0,2,0,down,0.483573321631,NG,f,22,60.0049267563,Set,2017_12_15_1718,
"[2.6, 2.6]",1,0,21,21,0,,,,,3,0,3,0,down,0.408801816433,NG,f,22,60.0049267563,Set,2017_12_15_1718,
"[2.7, 2.7]",3,0,22,22,8,,,,,0,0,0,0,left,0.525455154071,NG,f,22,60.0049267563,Set,2017_12_15_1718,
"[2.7, 2.7]",3,0,22,22,8,,,,,1,0,1,0,down,0.40879313217,NG,f,22,60.0049267563,Set,2017_12_15_1718,
"[2.7, 2.7]",3,0,22,22,8,,,,,2,0,2,0,down,0.792124794447,NG,f,22,60.0049267563,Set,2017_12_15_1718,
"[2.7, 2.7]",3,0,22,22,8,,,,,3,0,3,0,right,0.542107623303,NG,f,22,60.0049267563,Set,2017_12_15_1718,
"[2.7, 2.7]",3,0,22,22,8,,,,,4,0,4,0,down,0.642120333883,NG,f,22,60.0049267563,Set,2017_12_15_1718,
"[2.7, 2.7]",3,0,22,22,8,,,,,5,0,5,0,down,0.508784526843,NG,f,22,60.0049267563,Set,2017_12_15_1718,
"[2.7, 2.7]",3,0,22,22,8,,,,,6,0,6,0,left,0.458794355858,NG,f,22,60.0049267563,Set,2017_12_15_1718,
"[2.7, 2.7]",3,0,22,22,8,,,,,7,0,7,0,down,0.542128939211,NG,f,22,60.0049267563,Set,2017_12_15_1718,
"[2.7, 2.7]",3,0,22,22,8,,,,,8,0,8,0,down,0.35875401349,NG,f,22,60.0049267563,Set,2017_12_15_1718,
"[2.7, 2.7]",3,0,22,22,8,,,,,9,0,9,0,left,0.425456654077,NG,f,22,60.0049267563,Set,2017_12_15_1718,
"[2.7, 2.7]",3,0,22,22,8,,,,,10,0,10,0,down,0.475459456735,NG,f,22,60.0049267563,Set,2017_12_15_1718,
"[2.7, 2.7]",3,0,22,22,8,,,,,11,0,11,0,down,0.375477930502,NG,f,22,60.0049267563,Set,2017_12_15_1718,
"[2.7, 2.7]",4,0,23,23,9,,,,,0,0,0,0,down,0.433572492679,NG,f,22,60.0049267563,Set,2017_12_15_1718,
"[2.7, 2.7]",4,0,23,23,9,,,,,1,0,1,0,left,0.342116544402,NG,f,22,60.0049267563,Set,2017_12_15_1718,
"[2.7, 2.7]",4,0,23,23,9,,,,,2,0,2,0,down,0.375464509387,NG,f,22,60.0049267563,Set,2017_12_15_1718,
"[2.7, 2.7]",4,0,23,23,9,,,,,3,0,3,0,down,0.358810066478,NG,f,22,60.0049267563,Set,2017_12_15_1718,
"[2.9, 2.9]",5,0,24,24,22,,,,,0,0,0,0,left,0.575407430122,NG,f,22,60.0049267563,Set,2017_12_15_1718,
"[2.9, 2.9]",5,0,24,24,22,,,,,1,0,1,0,down,0.792116110184,NG,f,22,60.0049267563,Set,2017_12_15_1718,
"[2.9, 2.9]",5,0,24,24,22,,,,,2,0,2,0,down,0.458792776917,NG,f,22,60.0049267563,Set,2017_12_15_1718,
"[2.9, 2.9]",4,0,25,25,21,,,,,0,0,0,0,left,0.65023735672,NG,f,22,60.0049267563,Set,2017_12_15_1718,
"[2.9, 2.9]",4,0,25,25,21,,,,,1,0,1,0,left,0.542117097008,NG,f,22,60.0049267563,Set,2017_12_15_1718,
"[2.9, 2.9]",4,0,25,25,21,,,,,2,0,2,0,down,0.758796171664,NG,f,22,60.0049267563,Set,2017_12_15_1718,
"[2.9, 2.9]",4,0,25,25,21,,,,,3,0,3,0,right,0.442120965454,NG,f,22,60.0049267563,Set,2017_12_15_1718,
"[2.9, 2.9]",4,0,25,25,21,,,,,4,0,4,0,left,0.75878511896,NG,f,22,60.0049267563,Set,2017_12_15_1718,
"[2.9, 2.9]",4,0,25,25,21,,,,,5,0,5,0,left,0.542119860213,NG,f,22,60.0049267563,Set,2017_12_15_1718,
"[2.9, 2.9]",4,0,25,25,21,,,,,6,0,6,0,down,0.442116228602,NG,f,22,60.0049267563,Set,2017_12_15_1718,
"[2.9, 2.9]",4,0,25,25,21,,,,,7,0,7,0,down,0.425474417338,NG,f,22,60.0049267563,Set,2017_12_15_1718,
"[2.9, 2.9]",4,0,25,25,21,,,,,8,0,8,0,left,0.675466719927,NG,f,22,60.0049267563,Set,2017_12_15_1718,
"[2.9, 2.9]",4,0,25,25,21,,,,,9,0,9,0,down,0.758842750918,NG,f,22,60.0049267563,Set,2017_12_15_1718,
"[2.9, 2.9]",4,0,25,25,21,,,,,10,0,10,0,left,0.492076004681,NG,f,22,60.0049267563,Set,2017_12_15_1718,
"[2.9, 2.9]",4,0,25,25,21,,,,,11,0,11,0,down,0.458805803297,NG,f,22,60.0049267563,Set,2017_12_15_1718,
"[2.9, 2.9]",4,0,25,25,21,,,,,12,0,12,0,down,0.442128465511,NG,f,22,60.0049267563,Set,2017_12_15_1718,
"[3.0, 3.0]",5,0,26,26,28,,,,,0,0,0,0,down,0.716913549724,NG,f,22,60.0049267563,Set,2017_12_15_1718,
"[3.0, 3.0]",5,0,26,26,28,,,,,1,0,1,0,left,0.533582834847,NG,f,22,60.0049267563,Set,2017_12_15_1718,
"[3.0, 3.0]",5,0,26,26,28,,,,,2,0,2,0,down,0.575407035358,NG,f,22,60.0049267563,Set,2017_12_15_1718,
"[3.0, 3.0]",5,0,26,26,28,,,,,3,0,3,0,down,0.72543912768,NG,f,22,60.0049267563,Set,2017_12_15_1718,
"[3.0, 3.0]",5,0,26,26,28,,,,,4,0,4,0,left,0.375453851419,NG,f,22,60.0049267563,Set,2017_12_15_1718,
"[3.0, 3.0]",5,0,26,26,28,,,,,5,0,5,0,down,0.375329113856,NG,f,22,60.0049267563,Set,2017_12_15_1718,
"[3.0, 3.0]",5,0,26,26,28,,,,,6,0,6,0,down,0.492130478699,NG,f,22,60.0049267563,Set,2017_12_15_1718,
"[3.0, 3.0]",5,0,26,26,28,,,,,7,0,7,0,left,0.308807658585,NG,f,22,60.0049267563,Set,2017_12_15_1718,
"[3.0, 3.0]",5,0,26,26,28,,,,,8,0,8,0,down,0.592116741755,NG,f,22,60.0049267563,Set,2017_12_15_1718,
"[3.0, 3.0]",5,0,26,26,28,,,,,9,0,9,0,down,0.64212625497,NG,f,22,60.0049267563,Set,2017_12_15_1718,
"[2.9, 2.9]",3,0,27,27,20,,,,,0,0,0,0,left,1.00877268467,NG,f,22,60.0049267563,Set,2017_12_15_1718,
"[2.9, 2.9]",3,0,27,27,20,,,,,1,0,1,0,down,0.525470548891,NG,f,22,60.0049267563,Set,2017_12_15_1718,
"[2.9, 2.9]",3,0,27,27,20,,,,,2,0,2,0,left,0.842148518277,NG,f,22,60.0049267563,Set,2017_12_15_1718,
"[2.9, 2.9]",3,0,27,27,20,,,,,3,0,3,0,down,0.8420162806,NG,f,22,60.0049267563,Set,2017_12_15_1718,
"[2.9, 2.9]",3,0,27,27,20,,,,,4,0,4,0,down,0.583580505889,NG,f,22,60.0049267563,Set,2017_12_15_1718,
"[3.0, 3.0]",1,0,28,28,24,,,,,0,0,0,0,left,1.43356578209,NG,f,22,60.0049267563,Set,2017_12_15_1718,
"[3.0, 3.0]",1,0,28,28,24,,,,,1,0,1,0,down,0.725487285847,NG,f,22,60.0049267563,Set,2017_12_15_1718,
"[3.0, 3.0]",1,0,28,28,24,,,,,2,0,2,0,left,0.775460877805,NG,f,22,60.0049267563,Set,2017_12_15_1718,
"[3.0, 3.0]",1,0,28,28,24,,,,,3,0,3,0,right,0.625456417241,NG,f,22,60.0049267563,Set,2017_12_15_1718,
"[3.0, 3.0]",1,0,28,28,24,,,,,4,0,4,0,down,0.808790684794,NG,f,22,60.0049267563,Set,2017_12_15_1718,
"[3.0, 3.0]",1,0,28,28,24,,,,,5,0,5,0,down,0.42545152246,NG,f,22,60.0049267563,Set,2017_12_15_1718,
"[3.0, 3.0]",1,0,28,28,24,,,,,6,0,6,0,left,0.542125386535,NG,f,22,60.0049267563,Set,2017_12_15_1718,
"[3.0, 3.0]",1,0,28,28,24,,,,,7,0,7,0,down,0.50878886896,NG,f,22,60.0049267563,Set,2017_12_15_1718,
"[3.0, 3.0]",1,0,28,28,24,,,,,8,0,8,0,down,0.392129215528,NG,f,22,60.0049267563,Set,2017_12_15_1718,
"[3.0, 3.0]",1,0,28,28,24,,,,,9,0,9,0,right,0.592120689136,NG,f,22,60.0049267563,Set,2017_12_15_1718,
"[3.0, 3.0]",1,0,28,28,24,,,,,10,0,10,0,down,0.558796013764,NG,f,22,60.0049267563,Set,2017_12_15_1718,
"[3.0, 3.0]",1,0,28,28,24,,,,,11,0,11,0,down,0.44213912345,NG,f,22,60.0049267563,Set,2017_12_15_1718,
"[2.7, 2.7]",2,0,29,29,7,,,,,0,0,0,0,down,0.933570913709,NG,f,22,60.0049267563,Set,2017_12_15_1718,
"[2.7, 2.7]",2,0,29,29,7,,,,,1,0,1,0,left,0.458805013826,NG,f,22,60.0049267563,Set,2017_12_15_1718,
"[2.7, 2.7]",2,0,29,29,7,,,,,2,0,2,0,right,0.575472167344,NG,f,22,60.0049267563,Set,2017_12_15_1718,
"[2.7, 2.7]",2,0,29,29,7,,,,,3,0,3,0,down,0.350238698826,NG,f,22,60.0049267563,Set,2017_12_15_1718,
"[2.7, 2.7]",2,0,29,29,7,,,,,4,0,4,0,left,0.458778566302,NG,f,22,60.0049267563,Set,2017_12_15_1718,
"[2.7, 2.7]",2,0,29,29,7,,,,,5,0,5,0,down,0.408853527275,NG,f,22,60.0049267563,Set,2017_12_15_1718,
"[2.7, 2.7]",2,0,29,29,7,,,,,6,0,6,0,right,0.600218369742,NG,f,22,60.0049267563,Set,2017_12_15_1718,
"[2.7, 2.7]",2,0,29,29,7,,,,,7,0,7,0,down,0.392129215528,NG,f,22,60.0049267563,Set,2017_12_15_1718,
"[2.7, 2.7]",2,0,29,29,7,,,,,8,0,8,0,down,0.392132373439,NG,f,22,60.0049267563,Set,2017_12_15_1718,
"[2.7, 2.7]",2,0,29,29,7,,,,,9,0,9,0,left,0.425446390873,NG,f,22,60.0049267563,Set,2017_12_15_1718,
"[2.7, 2.7]",2,0,29,29,7,,,,,10,0,10,0,down,0.325490917428,NG,f,22,60.0049267563,Set,2017_12_15_1718,
"[2.7, 2.7]",2,0,29,29,7,,,,,11,0,11,0,down,0.592121083901,NG,f,22,60.0049267563,Set,2017_12_15_1718,
