size,n,trials_2.thisRepN,trials_2.thisTrialN,trials_2.thisN,trials_2.thisIndex,trials.thisRepN,trials.thisTrialN,trials.thisN,trials.thisIndex,trials_3.thisRepN,trials_3.thisTrialN,trials_3.thisN,trials_3.thisIndex,answer.keys,answer.rt,participant,gender,age,frameRate,expName,date,
"[2.7, 2.7]",1,0,0,0,6,,,,,0,0,0,0,right,5.80872357913,NV,f,28,60.0022264139,Set,2017_12_15_2038,
"[2.7, 2.7]",1,0,0,0,6,,,,,1,0,1,0,right,4.02527436352,NV,f,28,60.0022264139,Set,2017_12_15_2038,
"[2.7, 2.7]",1,0,0,0,6,,,,,2,0,2,0,down,4.35875756614,NV,f,28,60.0022264139,Set,2017_12_15_2038,
"[2.7, 2.7]",1,0,0,0,6,,,,,3,0,3,0,down,7.57543664079,NV,f,28,60.0022264139,Set,2017_12_15_2038,
"[2.8, 2.8]",6,0,1,1,17,,,,,0,0,0,0,down,0.0254729173321,NV,f,28,60.0022264139,Set,2017_12_15_2038,
"[2.8, 2.8]",6,0,1,1,17,,,,,1,0,1,0,down,0.642112439091,NV,f,28,60.0022264139,Set,2017_12_15_2038,
"[2.8, 2.8]",2,0,2,2,13,,,,,0,0,0,0,down,0.558797592734,NV,f,28,60.0022264139,Set,2017_12_15_2038,
"[2.8, 2.8]",2,0,2,2,13,,,,,1,0,1,0,down,0.808801737468,NV,f,28,60.0022264139,Set,2017_12_15_2038,
"[2.6, 2.6]",2,0,3,3,1,,,,,0,0,0,0,down,0.675394087913,NV,f,28,60.0022264139,Set,2017_12_15_2038,
"[2.6, 2.6]",2,0,3,3,1,,,,,1,0,1,0,right,0.392158820963,NV,f,28,60.0022264139,Set,2017_12_15_2038,
"[2.6, 2.6]",2,0,3,3,1,,,,,2,0,2,0,down,0.675447377696,NV,f,28,60.0022264139,Set,2017_12_15_2038,
"[2.6, 2.6]",2,0,3,3,1,,,,,3,0,3,0,down,0.525465812039,NV,f,28,60.0022264139,Set,2017_12_15_2038,
"[2.6, 2.6]",2,0,3,3,1,,,,,4,0,4,0,right,0.608799211157,NV,f,28,60.0022264139,Set,2017_12_15_2038,
"[2.6, 2.6]",2,0,3,3,1,,,,,5,0,5,0,right,0.475478798937,NV,f,28,60.0022264139,Set,2017_12_15_2038,
"[2.6, 2.6]",2,0,3,3,1,,,,,6,0,6,0,down,0.575467430433,NV,f,28,60.0022264139,Set,2017_12_15_2038,
"[2.6, 2.6]",2,0,3,3,1,,,,,7,0,7,0,down,0.550217540789,NV,f,28,60.0022264139,Set,2017_12_15_2038,
"[2.6, 2.6]",2,0,3,3,1,,,,,8,0,8,0,right,0.908805369079,NV,f,28,60.0022264139,Set,2017_12_15_2038,
"[2.6, 2.6]",2,0,3,3,1,,,,,9,0,9,0,down,0.442105175898,NV,f,28,60.0022264139,Set,2017_12_15_2038,
"[2.6, 2.6]",2,0,3,3,1,,,,,10,0,10,0,down,0.50883505345,NV,f,28,60.0022264139,Set,2017_12_15_2038,
"[2.6, 2.6]",2,0,3,3,1,,,,,11,0,11,0,right,0.958759224042,NV,f,28,60.0022264139,Set,2017_12_15_2038,
"[2.6, 2.6]",2,0,3,3,1,,,,,12,0,12,0,right,0.458808171708,NV,f,28,60.0022264139,Set,2017_12_15_2038,
"[2.6, 2.6]",2,0,3,3,1,,,,,13,0,13,0,down,0.792120057566,NV,f,28,60.0022264139,Set,2017_12_15_2038,
"[2.6, 2.6]",2,0,3,3,1,,,,,14,0,14,0,down,0.975461035676,NV,f,28,60.0022264139,Set,2017_12_15_2038,
"[2.9, 2.9]",6,0,4,4,23,,,,,0,0,0,0,down,0.458796329563,NV,f,28,60.0022264139,Set,2017_12_15_2038,
"[2.9, 2.9]",6,0,4,4,23,,,,,1,0,1,0,right,0.675473430514,NV,f,28,60.0022264139,Set,2017_12_15_2038,
"[2.9, 2.9]",6,0,4,4,23,,,,,2,0,2,0,down,0.942109123309,NV,f,28,60.0022264139,Set,2017_12_15_2038,
"[2.9, 2.9]",6,0,4,4,23,,,,,3,0,3,0,right,0.725440706592,NV,f,28,60.0022264139,Set,2017_12_15_2038,
"[2.9, 2.9]",6,0,4,4,23,,,,,4,0,4,0,right,0.892112636473,NV,f,28,60.0022264139,Set,2017_12_15_2038,
"[2.9, 2.9]",6,0,4,4,23,,,,,5,0,5,0,right,0.425459022517,NV,f,28,60.0022264139,Set,2017_12_15_2038,
"[2.9, 2.9]",6,0,4,4,23,,,,,6,0,6,0,down,0.708799290122,NV,f,28,60.0022264139,Set,2017_12_15_2038,
"[2.9, 2.9]",6,0,4,4,23,,,,,7,0,7,0,right,0.591957661876,NV,f,28,60.0022264139,Set,2017_12_15_2038,
"[2.9, 2.9]",6,0,4,4,23,,,,,8,0,8,0,left,0.708833632438,NV,f,28,60.0022264139,Set,2017_12_15_2038,
"[2.9, 2.9]",6,0,4,4,23,,,,,9,0,9,0,left,0.642116781237,NV,f,28,60.0022264139,Set,2017_12_15_2038,
"[2.9, 2.9]",6,0,4,4,23,,,,,10,0,10,0,down,0.608800790127,NV,f,28,60.0022264139,Set,2017_12_15_2038,
"[2.9, 2.9]",6,0,4,4,23,,,,,11,0,11,0,right,0.54211038645,NV,f,28,60.0022264139,Set,2017_12_15_2038,
"[2.9, 2.9]",6,0,4,4,23,,,,,12,0,12,0,left,0.692111689103,NV,f,28,60.0022264139,Set,2017_12_15_2038,
"[2.9, 2.9]",6,0,4,4,23,,,,,13,0,13,0,right,0.458777776803,NV,f,28,60.0022264139,Set,2017_12_15_2038,
"[2.9, 2.9]",6,0,4,4,23,,,,,14,0,14,0,right,0.392136320821,NV,f,28,60.0022264139,Set,2017_12_15_2038,
"[2.9, 2.9]",6,0,4,4,23,,,,,15,0,15,0,down,0.492157320958,NV,f,28,60.0022264139,Set,2017_12_15_2038,
"[2.9, 2.9]",6,0,4,4,23,,,,,16,0,16,0,left,0.44211070225,NV,f,28,60.0022264139,Set,2017_12_15_2038,
"[2.9, 2.9]",6,0,4,4,23,,,,,17,0,17,0,right,0.492123768112,NV,f,28,60.0022264139,Set,2017_12_15_2038,
"[2.9, 2.9]",6,0,4,4,23,,,,,18,0,18,0,left,0.592098583758,NV,f,28,60.0022264139,Set,2017_12_15_2038,
"[2.9, 2.9]",6,0,4,4,23,,,,,19,0,19,0,right,0.358800592716,NV,f,28,60.0022264139,Set,2017_12_15_2038,
"[2.9, 2.9]",6,0,4,4,23,,,,,20,0,20,0,right,0.625451285625,NV,f,28,60.0022264139,Set,2017_12_15_2038,
"[2.9, 2.9]",6,0,4,4,23,,,,,21,0,21,0,right,0.458779355773,NV,f,28,60.0022264139,Set,2017_12_15_2038,
"[2.9, 2.9]",6,0,4,4,23,,,,,22,0,22,0,right,0.408774974145,NV,f,28,60.0022264139,Set,2017_12_15_2038,
"[2.9, 2.9]",6,0,4,4,23,,,,,23,0,23,0,right,0.458786855801,NV,f,28,60.0022264139,Set,2017_12_15_2038,
"[2.9, 2.9]",6,0,4,4,23,,,,,24,0,24,0,right,0.792113347008,NV,f,28,60.0022264139,Set,2017_12_15_2038,
"[2.9, 2.9]",6,0,4,4,23,,,,,25,0,25,0,right,0.542118675978,NV,f,28,60.0022264139,Set,2017_12_15_2038,
"[2.9, 2.9]",6,0,4,4,23,,,,,26,0,26,0,right,0.342107860139,NV,f,28,60.0022264139,Set,2017_12_15_2038,
"[2.9, 2.9]",6,0,4,4,23,,,,,27,0,27,0,left,0.725533865072,NV,f,28,60.0022264139,Set,2017_12_15_2038,
"[2.9, 2.9]",6,0,4,4,23,,,,,28,0,28,0,left,0.508779789961,NV,f,28,60.0022264139,Set,2017_12_15_2038,
"[2.9, 2.9]",6,0,4,4,23,,,,,29,0,29,0,down,0.492074030975,NV,f,28,60.0022264139,Set,2017_12_15_2038,
"[2.9, 2.9]",6,0,4,4,23,,,,,30,0,30,0,right,0.383577979548,NV,f,28,60.0022264139,Set,2017_12_15_2038,
"[2.9, 2.9]",6,0,4,4,23,,,,,31,0,31,0,left,0.575448877702,NV,f,28,60.0022264139,Set,2017_12_15_2038,
"[2.9, 2.9]",6,0,4,4,23,,,,,32,0,32,0,right,0.441968596133,NV,f,28,60.0022264139,Set,2017_12_15_2038,
"[2.9, 2.9]",6,0,4,4,23,,,,,33,0,33,0,left,0.742211992358,NV,f,28,60.0022264139,Set,2017_12_15_2038,
"[2.9, 2.9]",6,0,4,4,23,,,,,34,0,34,0,right,0.608813816507,NV,f,28,60.0022264139,Set,2017_12_15_2038,
"[2.9, 2.9]",6,0,4,4,23,,,,,35,0,35,0,left,0.425485075306,NV,f,28,60.0022264139,Set,2017_12_15_2038,
"[2.9, 2.9]",6,0,4,4,23,,,,,36,0,36,0,left,1.02544923298,NV,f,28,60.0022264139,Set,2017_12_15_2038,
"[2.9, 2.9]",6,0,4,4,23,,,,,37,0,37,0,right,0.492129689228,NV,f,28,60.0022264139,Set,2017_12_15_2038,
"[2.9, 2.9]",6,0,4,4,23,,,,,38,0,38,0,down,0.925490996393,NV,f,28,60.0022264139,Set,2017_12_15_2038,
"[2.9, 2.9]",6,0,4,4,23,,,,,39,0,39,0,right,0.442122939159,NV,f,28,60.0022264139,Set,2017_12_15_2038,
"[2.9, 2.9]",6,0,4,4,23,,,,,40,0,40,0,right,0.992104031146,NV,f,28,60.0022264139,Set,2017_12_15_2038,
"[2.9, 2.9]",6,0,4,4,23,,,,,41,0,41,0,down,0.742132255022,NV,f,28,60.0022264139,Set,2017_12_15_2038,
"[2.9, 2.9]",6,0,4,4,23,,,,,42,0,42,0,down,0.375432140747,NV,f,28,60.0022264139,Set,2017_12_15_2038,
"[2.7, 2.7]",5,0,5,5,10,,,,,0,0,0,0,right,0.208804816473,NV,f,28,60.0022264139,Set,2017_12_15_2038,
"[2.7, 2.7]",5,0,5,5,10,,,,,1,0,1,0,down,0.925434943405,NV,f,28,60.0022264139,Set,2017_12_15_2038,
"[2.7, 2.7]",5,0,5,5,10,,,,,2,0,2,0,down,0.642128623411,NV,f,28,60.0022264139,Set,2017_12_15_2038,
"[3.0, 3.0]",1,0,6,6,24,,,,,0,0,0,0,down,1.98355437414,NV,f,28,60.0022264139,Set,2017_12_15_2038,
"[3.0, 3.0]",1,0,6,6,24,,,,,1,0,1,0,down,0.608804342774,NV,f,28,60.0022264139,Set,2017_12_15_2038,
"[2.6, 2.6]",6,0,7,7,5,,,,,0,0,0,0,down,1.85878282948,NV,f,28,60.0022264139,Set,2017_12_15_2038,
"[2.6, 2.6]",6,0,7,7,5,,,,,1,0,1,0,right,0.775447061926,NV,f,28,60.0022264139,Set,2017_12_15_2038,
"[2.6, 2.6]",6,0,7,7,5,,,,,2,0,2,0,right,0.375467667298,NV,f,28,60.0022264139,Set,2017_12_15_2038,
"[2.6, 2.6]",6,0,7,7,5,,,,,3,0,3,0,right,0.392140268203,NV,f,28,60.0022264139,Set,2017_12_15_2038,
"[2.6, 2.6]",6,0,7,7,5,,,,,4,0,4,0,left,1.09210134691,NV,f,28,60.0022264139,Set,2017_12_15_2038,
"[2.6, 2.6]",6,0,7,7,5,,,,,5,0,5,0,left,0.508771105728,NV,f,28,60.0022264139,Set,2017_12_15_2038,
"[2.6, 2.6]",6,0,7,7,5,,,,,6,0,6,0,left,1.292131505,NV,f,28,60.0022264139,Set,2017_12_15_2038,
"[2.6, 2.6]",6,0,7,7,5,,,,,7,0,7,0,down,0.525457127776,NV,f,28,60.0022264139,Set,2017_12_15_2038,
"[2.6, 2.6]",6,0,7,7,5,,,,,8,0,8,0,right,0.958616328455,NV,f,28,60.0022264139,Set,2017_12_15_2038,
"[2.6, 2.6]",6,0,7,7,5,,,,,9,0,9,0,down,0.55878496106,NV,f,28,60.0022264139,Set,2017_12_15_2038,
"[2.6, 2.6]",6,0,7,7,5,,,,,10,0,10,0,right,0.408800632227,NV,f,28,60.0022264139,Set,2017_12_15_2038,
"[2.6, 2.6]",6,0,7,7,5,,,,,11,0,11,0,left,0.625437075039,NV,f,28,60.0022264139,Set,2017_12_15_2038,
"[2.6, 2.6]",6,0,7,7,5,,,,,12,0,12,0,right,0.675469483103,NV,f,28,60.0022264139,Set,2017_12_15_2038,
"[2.6, 2.6]",6,0,7,7,5,,,,,13,0,13,0,right,0.375448325096,NV,f,28,60.0022264139,Set,2017_12_15_2038,
"[2.6, 2.6]",6,0,7,7,5,,,,,14,0,14,0,right,0.583578137448,NV,f,28,60.0022264139,Set,2017_12_15_2038,
"[2.6, 2.6]",6,0,7,7,5,,,,,15,0,15,0,left,0.492137189227,NV,f,28,60.0022264139,Set,2017_12_15_2038,
"[2.6, 2.6]",6,0,7,7,5,,,,,16,0,16,0,right,0.375464114652,NV,f,28,60.0022264139,Set,2017_12_15_2038,
"[2.6, 2.6]",6,0,7,7,5,,,,,17,0,17,0,down,0.792108215392,NV,f,28,60.0022264139,Set,2017_12_15_2038,
"[2.6, 2.6]",6,0,7,7,5,,,,,18,0,18,0,down,0.825456575141,NV,f,28,60.0022264139,Set,2017_12_15_2038,
"[2.6, 2.6]",6,0,7,7,5,,,,,19,0,19,0,right,0.375464904151,NV,f,28,60.0022264139,Set,2017_12_15_2038,
"[2.6, 2.6]",6,0,7,7,5,,,,,20,0,20,0,down,0.492182584247,NV,f,28,60.0022264139,Set,2017_12_15_2038,
"[2.6, 2.6]",6,0,7,7,5,,,,,21,0,21,0,right,0.275451404043,NV,f,28,60.0022264139,Set,2017_12_15_2038,
"[2.6, 2.6]",6,0,7,7,5,,,,,22,0,22,0,down,0.842121675989,NV,f,28,60.0022264139,Set,2017_12_15_2038,
"[2.6, 2.6]",6,0,7,7,5,,,,,23,0,23,0,right,0.225471101527,NV,f,28,60.0022264139,Set,2017_12_15_2038,
"[2.6, 2.6]",6,0,7,7,5,,,,,24,0,24,0,down,0.842116939137,NV,f,28,60.0022264139,Set,2017_12_15_2038,
"[2.6, 2.6]",6,0,7,7,5,,,,,25,0,25,0,down,0.375451877713,NV,f,28,60.0022264139,Set,2017_12_15_2038,
"[2.6, 2.6]",4,0,8,8,3,,,,,0,0,0,0,down,1.02544568034,NV,f,28,60.0022264139,Set,2017_12_15_2038,
"[2.6, 2.6]",4,0,8,8,3,,,,,1,0,1,0,right,0.592125031282,NV,f,28,60.0022264139,Set,2017_12_15_2038,
"[2.6, 2.6]",4,0,8,8,3,,,,,2,0,2,0,right,0.458787250565,NV,f,28,60.0022264139,Set,2017_12_15_2038,
"[2.6, 2.6]",4,0,8,8,3,,,,,3,0,3,0,right,0.325445127673,NV,f,28,60.0022264139,Set,2017_12_15_2038,
"[2.6, 2.6]",4,0,8,8,3,,,,,4,0,4,0,down,0.975509983342,NV,f,28,60.0022264139,Set,2017_12_15_2038,
"[2.6, 2.6]",4,0,8,8,3,,,,,5,0,5,0,right,0.942186492175,NV,f,28,60.0022264139,Set,2017_12_15_2038,
"[2.6, 2.6]",4,0,8,8,3,,,,,6,0,6,0,down,0.442128465511,NV,f,28,60.0022264139,Set,2017_12_15_2038,
"[2.6, 2.6]",4,0,8,8,3,,,,,7,0,7,0,down,0.425463759399,NV,f,28,60.0022264139,Set,2017_12_15_2038,
"[3.0, 3.0]",5,0,9,9,28,,,,,0,0,0,0,down,0.308724368602,NV,f,28,60.0022264139,Set,2017_12_15_2038,
"[3.0, 3.0]",5,0,9,9,28,,,,,1,0,1,0,down,0.542139991914,NV,f,28,60.0022264139,Set,2017_12_15_2038,
"[3.0, 3.0]",2,0,10,10,25,,,,,0,0,0,0,down,0.600226264534,NV,f,28,60.0022264139,Set,2017_12_15_2038,
"[3.0, 3.0]",2,0,10,10,25,,,,,1,0,1,0,left,0.775484167389,NV,f,28,60.0022264139,Set,2017_12_15_2038,
"[3.0, 3.0]",2,0,10,10,25,,,,,2,0,2,0,left,0.67547461472,NV,f,28,60.0022264139,Set,2017_12_15_2038,
"[3.0, 3.0]",2,0,10,10,25,,,,,3,0,3,0,down,0.775458114629,NV,f,28,60.0022264139,Set,2017_12_15_2038,
"[3.0, 3.0]",2,0,10,10,25,,,,,4,0,4,0,right,0.475316561118,NV,f,28,60.0022264139,Set,2017_12_15_2038,
"[3.0, 3.0]",2,0,10,10,25,,,,,5,0,5,0,down,0.708771263628,NV,f,28,60.0022264139,Set,2017_12_15_2038,
"[3.0, 3.0]",2,0,10,10,25,,,,,6,0,6,0,down,0.79211887336,NV,f,28,60.0022264139,Set,2017_12_15_2038,
"[3.0, 3.0]",3,0,11,11,26,,,,,0,0,0,0,down,0.325486180576,NV,f,28,60.0022264139,Set,2017_12_15_2038,
"[3.0, 3.0]",3,0,11,11,26,,,,,1,0,1,0,down,1.00878176367,NV,f,28,60.0022264139,Set,2017_12_15_2038,
"[2.6, 2.6]",5,0,12,12,4,,,,,0,0,0,0,down,0.342081412615,NV,f,28,60.0022264139,Set,2017_12_15_2038,
"[2.6, 2.6]",5,0,12,12,4,,,,,1,0,1,0,down,0.558766803064,NV,f,28,60.0022264139,Set,2017_12_15_2038,
"[2.9, 2.9]",5,0,13,13,22,,,,,0,0,0,0,left,1.70876850045,NV,f,28,60.0022264139,Set,2017_12_15_2038,
"[2.9, 2.9]",5,0,13,13,22,,,,,1,0,1,0,down,0.508800316427,NV,f,28,60.0022264139,Set,2017_12_15_2038,
"[2.9, 2.9]",5,0,13,13,22,,,,,2,0,2,0,down,0.608794079541,NV,f,28,60.0022264139,Set,2017_12_15_2038,
"[2.9, 2.9]",5,0,13,13,22,,,,,3,0,3,0,left,0.758804461191,NV,f,28,60.0022264139,Set,2017_12_15_2038,
"[2.9, 2.9]",5,0,13,13,22,,,,,4,0,4,0,left,0.525315021659,NV,f,28,60.0022264139,Set,2017_12_15_2038,
"[2.9, 2.9]",5,0,13,13,22,,,,,5,0,5,0,left,0.30880805332,NV,f,28,60.0022264139,Set,2017_12_15_2038,
"[2.9, 2.9]",5,0,13,13,22,,,,,6,0,6,0,left,0.275518509734,NV,f,28,60.0022264139,Set,2017_12_15_2038,
"[2.9, 2.9]",5,0,13,13,22,,,,,7,0,7,0,down,0.892097241653,NV,f,28,60.0022264139,Set,2017_12_15_2038,
"[2.9, 2.9]",5,0,13,13,22,,,,,8,0,8,0,down,0.808761079359,NV,f,28,60.0022264139,Set,2017_12_15_2038,
"[2.9, 2.9]",5,0,13,13,22,,,,,9,0,9,0,right,1.32544868035,NV,f,28,60.0022264139,Set,2017_12_15_2038,
"[2.9, 2.9]",5,0,13,13,22,,,,,10,0,10,0,right,0.358832566621,NV,f,28,60.0022264139,Set,2017_12_15_2038,
"[2.9, 2.9]",5,0,13,13,22,,,,,11,0,11,0,right,0.542142755061,NV,f,28,60.0022264139,Set,2017_12_15_2038,
"[2.9, 2.9]",5,0,13,13,22,,,,,12,0,12,0,right,0.408775368909,NV,f,28,60.0022264139,Set,2017_12_15_2038,
"[2.9, 2.9]",5,0,13,13,22,,,,,13,0,13,0,right,0.575279929326,NV,f,28,60.0022264139,Set,2017_12_15_2038,
"[2.9, 2.9]",5,0,13,13,22,,,,,14,0,14,0,right,0.392122110236,NV,f,28,60.0022264139,Set,2017_12_15_2038,
"[2.9, 2.9]",5,0,13,13,22,,,,,15,0,15,0,left,0.525463838334,NV,f,28,60.0022264139,Set,2017_12_15_2038,
"[2.9, 2.9]",5,0,13,13,22,,,,,16,0,16,0,left,1.3254443382,NV,f,28,60.0022264139,Set,2017_12_15_2038,
"[2.9, 2.9]",5,0,13,13,22,,,,,17,0,17,0,left,0.616907154967,NV,f,28,60.0022264139,Set,2017_12_15_2038,
"[2.9, 2.9]",5,0,13,13,22,,,,,18,0,18,0,left,0.508799526957,NV,f,28,60.0022264139,Set,2017_12_15_2038,
"[2.9, 2.9]",5,0,13,13,22,,,,,19,0,19,0,left,0.458803829591,NV,f,28,60.0022264139,Set,2017_12_15_2038,
"[2.9, 2.9]",5,0,13,13,22,,,,,20,0,20,0,left,1.79212361024,NV,f,28,60.0022264139,Set,2017_12_15_2038,
"[2.9, 2.9]",5,0,13,13,22,,,,,21,0,21,0,left,1.1754473777,NV,f,28,60.0022264139,Set,2017_12_15_2038,
"[2.9, 2.9]",5,0,13,13,22,,,,,22,0,22,0,right,0.52545357513,NV,f,28,60.0022264139,Set,2017_12_15_2038,
"[2.9, 2.9]",5,0,13,13,22,,,,,23,0,23,0,right,0.575456772523,NV,f,28,60.0022264139,Set,2017_12_15_2038,
"[2.9, 2.9]",5,0,13,13,22,,,,,24,0,24,0,down,0.625450496154,NV,f,28,60.0022264139,Set,2017_12_15_2038,
"[2.9, 2.9]",5,0,13,13,22,,,,,25,0,25,0,down,1.02545752248,NV,f,28,60.0022264139,Set,2017_12_15_2038,
"[2.9, 2.9]",5,0,13,13,22,,,,,26,0,26,0,right,0.708793369005,NV,f,28,60.0022264139,Set,2017_12_15_2038,
"[2.9, 2.9]",5,0,13,13,22,,,,,27,0,27,0,right,0.342135491868,NV,f,28,60.0022264139,Set,2017_12_15_2038,
"[2.9, 2.9]",5,0,13,13,22,,,,,28,0,28,0,right,0.325473154197,NV,f,28,60.0022264139,Set,2017_12_15_2038,
"[2.9, 2.9]",5,0,13,13,22,,,,,29,0,29,0,left,0.725473075232,NV,f,28,60.0022264139,Set,2017_12_15_2038,
"[2.9, 2.9]",5,0,13,13,22,,,,,30,0,30,0,right,0.442102017987,NV,f,28,60.0022264139,Set,2017_12_15_2038,
"[2.9, 2.9]",5,0,13,13,22,,,,,31,0,31,0,left,0.542143149796,NV,f,28,60.0022264139,Set,2017_12_15_2038,
"[2.9, 2.9]",5,0,13,13,22,,,,,32,0,32,0,left,0.392121320736,NV,f,28,60.0022264139,Set,2017_12_15_2038,
"[2.9, 2.9]",5,0,13,13,22,,,,,33,0,33,0,left,0.358636381221,NV,f,28,60.0022264139,Set,2017_12_15_2038,
"[2.9, 2.9]",5,0,13,13,22,,,,,34,0,34,0,left,0.358632039075,NV,f,28,60.0022264139,Set,2017_12_15_2038,
"[2.9, 2.9]",5,0,13,13,22,,,,,35,0,35,0,left,0.358776908397,NV,f,28,60.0022264139,Set,2017_12_15_2038,
"[2.9, 2.9]",5,0,13,13,22,,,,,36,0,36,0,left,0.275472325215,NV,f,28,60.0022264139,Set,2017_12_15_2038,
"[2.9, 2.9]",5,0,13,13,22,,,,,37,0,37,0,left,0.308789105824,NV,f,28,60.0022264139,Set,2017_12_15_2038,
"[2.9, 2.9]",5,0,13,13,22,,,,,38,0,38,0,left,1.74213857084,NV,f,28,60.0022264139,Set,2017_12_15_2038,
"[2.9, 2.9]",5,0,13,13,22,,,,,39,0,39,0,left,0.825475127873,NV,f,28,60.0022264139,Set,2017_12_15_2038,
"[2.9, 2.9]",5,0,13,13,22,,,,,40,0,40,0,down,2.19209945216,NV,f,28,60.0022264139,Set,2017_12_15_2038,
"[2.9, 2.9]",5,0,13,13,22,,,,,41,0,41,0,left,0.508792816399,NV,f,28,60.0022264139,Set,2017_12_15_2038,
"[2.9, 2.9]",5,0,13,13,22,,,,,42,0,42,0,right,0.858769803075,NV,f,28,60.0022264139,Set,2017_12_15_2038,
"[2.9, 2.9]",5,0,13,13,22,,,,,43,0,43,0,right,0.292120452301,NV,f,28,60.0022264139,Set,2017_12_15_2038,
"[2.9, 2.9]",5,0,13,13,22,,,,,44,0,44,0,right,0.275478246302,NV,f,28,60.0022264139,Set,2017_12_15_2038,
"[2.9, 2.9]",5,0,13,13,22,,,,,45,0,45,0,right,0.275458509364,NV,f,28,60.0022264139,Set,2017_12_15_2038,
"[2.9, 2.9]",5,0,13,13,22,,,,,46,0,46,0,left,0.525450022455,NV,f,28,60.0022264139,Set,2017_12_15_2038,
"[2.9, 2.9]",5,0,13,13,22,,,,,47,0,47,0,right,0.892103557475,NV,f,28,60.0022264139,Set,2017_12_15_2038,
"[2.9, 2.9]",5,0,13,13,22,,,,,48,0,48,0,right,0.325454996171,NV,f,28,60.0022264139,Set,2017_12_15_2038,
"[2.9, 2.9]",5,0,13,13,22,,,,,49,0,49,0,left,0.725445443473,NV,f,28,60.0022264139,Set,2017_12_15_2038,
"[2.9, 2.9]",5,0,13,13,22,,,,,50,0,50,0,right,0.442132807657,NV,f,28,60.0022264139,Set,2017_12_15_2038,
"[2.9, 2.9]",5,0,13,13,22,,,,,51,0,51,0,right,0.275494430651,NV,f,28,60.0022264139,Set,2017_12_15_2038,
"[2.9, 2.9]",5,0,13,13,22,,,,,52,0,52,0,left,0.808781605796,NV,f,28,60.0022264139,Set,2017_12_15_2038,
"[2.9, 2.9]",5,0,13,13,22,,,,,53,0,53,0,right,0.508775053138,NV,f,28,60.0022264139,Set,2017_12_15_2038,
"[2.9, 2.9]",5,0,13,13,22,,,,,54,0,54,0,right,0.342107070639,NV,f,28,60.0022264139,Set,2017_12_15_2038,
"[2.9, 2.9]",5,0,13,13,22,,,,,55,0,55,0,left,0.675295008376,NV,f,28,60.0022264139,Set,2017_12_15_2038,
"[2.9, 2.9]",5,0,13,13,22,,,,,56,0,56,0,left,0.492174689483,NV,f,28,60.0022264139,Set,2017_12_15_2038,
"[2.9, 2.9]",5,0,13,13,22,,,,,57,0,57,0,left,0.508786895283,NV,f,28,60.0022264139,Set,2017_12_15_2038,
"[2.9, 2.9]",5,0,13,13,22,,,,,58,0,58,0,left,0.308781211061,NV,f,28,60.0022264139,Set,2017_12_15_2038,
"[2.9, 2.9]",5,0,13,13,22,,,,,59,0,59,0,right,0.375455430389,NV,f,28,60.0022264139,Set,2017_12_15_2038,
"[2.9, 2.9]",5,0,13,13,22,,,,,60,0,60,0,right,0.242147649842,NV,f,28,60.0022264139,Set,2017_12_15_2038,
"[2.9, 2.9]",5,0,13,13,22,,,,,61,0,61,0,right,0.158789776877,NV,f,28,60.0022264139,Set,2017_12_15_2038,
"[2.9, 2.9]",5,0,13,13,22,,,,,62,0,62,0,down,1.09212305761,NV,f,28,60.0022264139,Set,2017_12_15_2038,
"[2.9, 2.9]",5,0,13,13,22,,,,,63,0,63,0,down,0.483575690072,NV,f,28,60.0022264139,Set,2017_12_15_2038,
"[2.9, 2.9]",5,0,13,13,22,,,,,64,0,64,0,right,1.04210920224,NV,f,28,60.0022264139,Set,2017_12_15_2038,
"[2.9, 2.9]",5,0,13,13,22,,,,,65,0,65,0,right,0.525487127947,NV,f,28,60.0022264139,Set,2017_12_15_2038,
"[2.9, 2.9]",5,0,13,13,22,,,,,66,0,66,0,right,0.675435140787,NV,f,28,60.0022264139,Set,2017_12_15_2038,
"[2.9, 2.9]",5,0,13,13,22,,,,,67,0,67,0,right,0.34212641287,NV,f,28,60.0022264139,Set,2017_12_15_2038,
"[2.9, 2.9]",5,0,13,13,22,,,,,68,0,68,0,right,0.242111333821,NV,f,28,60.0022264139,Set,2017_12_15_2038,
"[2.9, 2.9]",5,0,13,13,22,,,,,69,0,69,0,right,0.625442206627,NV,f,28,60.0022264139,Set,2017_12_15_2038,
"[2.9, 2.9]",5,0,13,13,22,,,,,70,0,70,0,right,0.325474733138,NV,f,28,60.0022264139,Set,2017_12_15_2038,
"[2.9, 2.9]",5,0,13,13,22,,,,,71,0,71,0,right,0.425451127754,NV,f,28,60.0022264139,Set,2017_12_15_2038,
"[2.9, 2.9]",5,0,13,13,22,,,,,72,0,72,0,right,0.358798224304,NV,f,28,60.0022264139,Set,2017_12_15_2038,
"[2.9, 2.9]",5,0,13,13,22,,,,,73,0,73,0,left,0.608789342659,NV,f,28,60.0022264139,Set,2017_12_15_2038,
"[2.9, 2.9]",5,0,13,13,22,,,,,74,0,74,0,left,0.742123176024,NV,f,28,60.0022264139,Set,2017_12_15_2038,
"[2.9, 2.9]",5,0,13,13,22,,,,,75,0,75,0,right,0.625453654065,NV,f,28,60.0022264139,Set,2017_12_15_2038,
"[2.9, 2.9]",5,0,13,13,22,,,,,76,0,76,0,right,0.592096215318,NV,f,28,60.0022264139,Set,2017_12_15_2038,
"[2.9, 2.9]",5,0,13,13,22,,,,,77,0,77,0,left,0.408809711196,NV,f,28,60.0022264139,Set,2017_12_15_2038,
"[2.9, 2.9]",5,0,13,13,22,,,,,78,0,78,0,left,0.475454325118,NV,f,28,60.0022264139,Set,2017_12_15_2038,
"[2.9, 2.9]",5,0,13,13,22,,,,,79,0,79,0,left,0.242118044378,NV,f,28,60.0022264139,Set,2017_12_15_2038,
"[2.9, 2.9]",5,0,13,13,22,,,,,80,0,80,0,left,0.208783500537,NV,f,28,60.0022264139,Set,2017_12_15_2038,
"[2.9, 2.9]",5,0,13,13,22,,,,,81,0,81,0,left,0.175458035665,NV,f,28,60.0022264139,Set,2017_12_15_2038,
"[2.9, 2.9]",5,0,13,13,22,,,,,82,0,82,0,left,0.458785671595,NV,f,28,60.0022264139,Set,2017_12_15_2038,
"[2.9, 2.9]",5,0,13,13,22,,,,,83,0,83,0,right,0.59213253131,NV,f,28,60.0022264139,Set,2017_12_15_2038,
"[2.9, 2.9]",5,0,13,13,22,,,,,84,0,84,0,right,0.308787921589,NV,f,28,60.0022264139,Set,2017_12_15_2038,
"[2.9, 2.9]",5,0,13,13,22,,,,,85,0,85,0,right,0.308793053206,NV,f,28,60.0022264139,Set,2017_12_15_2038,
"[2.9, 2.9]",5,0,13,13,22,,,,,86,0,86,0,left,0.475464983087,NV,f,28,60.0022264139,Set,2017_12_15_2038,
"[2.9, 2.9]",5,0,13,13,22,,,,,87,0,87,0,right,0.558806276968,NV,f,28,60.0022264139,Set,2017_12_15_2038,
"[2.9, 2.9]",5,0,13,13,22,,,,,88,0,88,0,right,0.35876940834,NV,f,28,60.0022264139,Set,2017_12_15_2038,
"[2.9, 2.9]",5,0,13,13,22,,,,,89,0,89,0,right,0.275431667076,NV,f,28,60.0022264139,Set,2017_12_15_2038,
"[2.9, 2.9]",5,0,13,13,22,,,,,90,0,90,0,right,0.208785474242,NV,f,28,60.0022264139,Set,2017_12_15_2038,
"[2.9, 2.9]",5,0,13,13,22,,,,,91,0,91,0,right,0.542119070713,NV,f,28,60.0022264139,Set,2017_12_15_2038,
"[2.9, 2.9]",5,0,13,13,22,,,,,92,0,92,0,right,0.508791632135,NV,f,28,60.0022264139,Set,2017_12_15_2038,
"[2.9, 2.9]",5,0,13,13,22,,,,,93,0,93,0,right,0.458766329364,NV,f,28,60.0022264139,Set,2017_12_15_2038,
"[2.9, 2.9]",5,0,13,13,22,,,,,94,0,94,0,left,0.258869987883,NV,f,28,60.0022264139,Set,2017_12_15_2038,
"[2.9, 2.9]",5,0,13,13,22,,,,,95,0,95,0,left,0.308834895579,NV,f,28,60.0022264139,Set,2017_12_15_2038,
"[2.9, 2.9]",5,0,13,13,22,,,,,96,0,96,0,left,0.192124320776,NV,f,28,60.0022264139,Set,2017_12_15_2038,
"[2.9, 2.9]",5,0,13,13,22,,,,,97,0,97,0,left,0.392148952495,NV,f,28,60.0022264139,Set,2017_12_15_2038,
"[2.9, 2.9]",5,0,13,13,22,,,,,98,0,98,0,right,0.392154873552,NV,f,28,60.0022264139,Set,2017_12_15_2038,
"[2.9, 2.9]",5,0,13,13,22,,,,,99,0,99,0,right,0.875433719746,NV,f,28,60.0022264139,Set,2017_12_15_2038,
"[2.8, 2.8]",4,0,14,14,15,,,,,0,0,0,0,down,0.325454996171,NV,f,28,60.0022264139,Set,2017_12_15_2038,
"[2.8, 2.8]",4,0,14,14,15,,,,,1,0,1,0,left,0.642128623411,NV,f,28,60.0022264139,Set,2017_12_15_2038,
"[2.8, 2.8]",4,0,14,14,15,,,,,2,0,2,0,left,0.525462654099,NV,f,28,60.0022264139,Set,2017_12_15_2038,
"[2.8, 2.8]",4,0,14,14,15,,,,,3,0,3,0,left,0.2087921848,NV,f,28,60.0022264139,Set,2017_12_15_2038,
"[2.8, 2.8]",4,0,14,14,15,,,,,4,0,4,0,left,0.192125110218,NV,f,28,60.0022264139,Set,2017_12_15_2038,
"[2.8, 2.8]",4,0,14,14,15,,,,,5,0,5,0,right,0.292155978823,NV,f,28,60.0022264139,Set,2017_12_15_2038,
"[2.8, 2.8]",4,0,14,14,15,,,,,6,0,6,0,left,0.391957109212,NV,f,28,60.0022264139,Set,2017_12_15_2038,
"[2.8, 2.8]",4,0,14,14,15,,,,,7,0,7,0,right,0.216908023402,NV,f,28,60.0022264139,Set,2017_12_15_2038,
"[2.8, 2.8]",4,0,14,14,15,,,,,8,0,8,0,left,0.341964964522,NV,f,28,60.0022264139,Set,2017_12_15_2038,
"[2.8, 2.8]",4,0,14,14,15,,,,,9,0,9,0,right,0.258807224367,NV,f,28,60.0022264139,Set,2017_12_15_2038,
"[2.8, 2.8]",4,0,14,14,15,,,,,10,0,10,0,left,0.192150373536,NV,f,28,60.0022264139,Set,2017_12_15_2038,
"[2.8, 2.8]",4,0,14,14,15,,,,,11,0,11,0,right,0.35878717163,NV,f,28,60.0022264139,Set,2017_12_15_2038,
"[2.8, 2.8]",4,0,14,14,15,,,,,12,0,12,0,left,0.175466325192,NV,f,28,60.0022264139,Set,2017_12_15_2038,
"[2.8, 2.8]",4,0,14,14,15,,,,,13,0,13,0,right,0.358787961071,NV,f,28,60.0022264139,Set,2017_12_15_2038,
"[2.8, 2.8]",4,0,14,14,15,,,,,14,0,14,0,left,0.325529996626,NV,f,28,60.0022264139,Set,2017_12_15_2038,
"[2.8, 2.8]",4,0,14,14,15,,,,,15,0,15,0,right,0.375445956655,NV,f,28,60.0022264139,Set,2017_12_15_2038,
"[2.8, 2.8]",4,0,14,14,15,,,,,16,0,16,0,left,0.425444417167,NV,f,28,60.0022264139,Set,2017_12_15_2038,
"[2.8, 2.8]",4,0,14,14,15,,,,,17,0,17,0,right,0.325439996086,NV,f,28,60.0022264139,Set,2017_12_15_2038,
"[2.8, 2.8]",4,0,14,14,15,,,,,18,0,18,0,left,0.275449035602,NV,f,28,60.0022264139,Set,2017_12_15_2038,
"[2.8, 2.8]",4,0,14,14,15,,,,,19,0,19,0,right,0.0754611146403,NV,f,28,60.0022264139,Set,2017_12_15_2038,
"[2.8, 2.8]",4,0,14,14,15,,,,,20,0,20,0,left,0.358793092688,NV,f,28,60.0022264139,Set,2017_12_15_2038,
"[2.8, 2.8]",4,0,14,14,15,,,,,21,0,21,0,right,0.392100794299,NV,f,28,60.0022264139,Set,2017_12_15_2038,
"[2.8, 2.8]",4,0,14,14,15,,,,,22,0,22,0,down,1.2754387724,NV,f,28,60.0022264139,Set,2017_12_15_2038,
"[2.8, 2.8]",4,0,14,14,15,,,,,23,0,23,0,right,0.425440864521,NV,f,28,60.0022264139,Set,2017_12_15_2038,
"[2.8, 2.8]",4,0,14,14,15,,,,,24,0,24,0,right,0.308789895324,NV,f,28,60.0022264139,Set,2017_12_15_2038,
"[2.8, 2.8]",4,0,14,14,15,,,,,25,0,25,0,right,0.242108570645,NV,f,28,60.0022264139,Set,2017_12_15_2038,
"[2.8, 2.8]",4,0,14,14,15,,,,,26,0,26,0,right,0.208774026803,NV,f,28,60.0022264139,Set,2017_12_15_2038,
"[2.8, 2.8]",4,0,14,14,15,,,,,27,0,27,0,right,0.37545700933,NV,f,28,60.0022264139,Set,2017_12_15_2038,
"[2.8, 2.8]",4,0,14,14,15,,,,,28,0,28,0,right,0.492109557497,NV,f,28,60.0022264139,Set,2017_12_15_2038,
"[2.8, 2.8]",4,0,14,14,15,,,,,29,0,29,0,right,0.425432574993,NV,f,28,60.0022264139,Set,2017_12_15_2038,
"[2.8, 2.8]",4,0,14,14,15,,,,,30,0,30,0,left,0.392121320736,NV,f,28,60.0022264139,Set,2017_12_15_2038,
"[2.8, 2.8]",4,0,14,14,15,,,,,31,0,31,0,left,0.175463167281,NV,f,28,60.0022264139,Set,2017_12_15_2038,
"[2.8, 2.8]",4,0,14,14,15,,,,,32,0,32,0,left,0.325462496228,NV,f,28,60.0022264139,Set,2017_12_15_2038,
"[2.8, 2.8]",4,0,14,14,15,,,,,33,0,33,0,left,0.783738164726,NV,f,28,60.0022264139,Set,2017_12_15_2038,
"[2.8, 2.8]",4,0,14,14,15,,,,,34,0,34,0,left,0.350234751415,NV,f,28,60.0022264139,Set,2017_12_15_2038,
"[2.8, 2.8]",4,0,14,14,15,,,,,35,0,35,0,right,0.275461667276,NV,f,28,60.0022264139,Set,2017_12_15_2038,
"[2.8, 2.8]",4,0,14,14,15,,,,,36,0,36,0,right,0.642112439091,NV,f,28,60.0022264139,Set,2017_12_15_2038,
"[2.8, 2.8]",4,0,14,14,15,,,,,37,0,37,0,left,0.508758079319,NV,f,28,60.0022264139,Set,2017_12_15_2038,
"[2.8, 2.8]",4,0,14,14,15,,,,,38,0,38,0,left,0.275462062011,NV,f,28,60.0022264139,Set,2017_12_15_2038,
"[2.8, 2.8]",4,0,14,14,15,,,,,39,0,39,0,left,0.125471022591,NV,f,28,60.0022264139,Set,2017_12_15_2038,
"[2.8, 2.8]",4,0,14,14,15,,,,,40,0,40,0,down,1.95879317165,NV,f,28,60.0022264139,Set,2017_12_15_2038,
"[2.8, 2.8]",4,0,14,14,15,,,,,41,0,41,0,right,0.35878243472,NV,f,28,60.0022264139,Set,2017_12_15_2038,
"[2.8, 2.8]",4,0,14,14,15,,,,,42,0,42,0,right,0.225465575175,NV,f,28,60.0022264139,Set,2017_12_15_2038,
"[2.8, 2.8]",4,0,14,14,15,,,,,43,0,43,0,right,0.175516851799,NV,f,28,60.0022264139,Set,2017_12_15_2038,
"[2.8, 2.8]",4,0,14,14,15,,,,,44,0,44,0,right,0.158803592756,NV,f,28,60.0022264139,Set,2017_12_15_2038,
"[2.8, 2.8]",4,0,14,14,15,,,,,45,0,45,0,left,0.858791908482,NV,f,28,60.0022264139,Set,2017_12_15_2038,
"[2.8, 2.8]",4,0,14,14,15,,,,,46,0,46,0,left,1.27542771969,NV,f,28,60.0022264139,Set,2017_12_15_2038,
"[2.8, 2.8]",4,0,14,14,15,,,,,47,0,47,0,right,0.225463601499,NV,f,28,60.0022264139,Set,2017_12_15_2038,
"[2.8, 2.8]",4,0,14,14,15,,,,,48,0,48,0,left,0.64214007082,NV,f,28,60.0022264139,Set,2017_12_15_2038,
"[2.8, 2.8]",4,0,14,14,15,,,,,49,0,49,0,right,0.375465693622,NV,f,28,60.0022264139,Set,2017_12_15_2038,
"[2.8, 2.8]",4,0,14,14,15,,,,,50,0,50,0,left,0.766902141768,NV,f,28,60.0022264139,Set,2017_12_15_2038,
"[2.8, 2.8]",4,0,14,14,15,,,,,51,0,51,0,left,0.525442522427,NV,f,28,60.0022264139,Set,2017_12_15_2038,
"[2.8, 2.8]",4,0,14,14,15,,,,,52,0,52,0,left,1.07544414085,NV,f,28,60.0022264139,Set,2017_12_15_2038,
"[2.8, 2.8]",4,0,14,14,15,,,,,53,0,53,0,left,0.57544414085,NV,f,28,60.0022264139,Set,2017_12_15_2038,
"[2.8, 2.8]",4,0,14,14,15,,,,,54,0,54,0,left,0.641961253976,NV,f,28,60.0022264139,Set,2017_12_15_2038,
"[2.8, 2.8]",4,0,14,14,15,,,,,55,0,55,0,left,1.23353601876,NV,f,28,60.0022264139,Set,2017_12_15_2038,
"[2.8, 2.8]",4,0,14,14,15,,,,,56,0,56,0,right,0.242119623348,NV,f,28,60.0022264139,Set,2017_12_15_2038,
"[2.8, 2.8]",4,0,14,14,15,,,,,57,0,57,0,right,0.492114689114,NV,f,28,60.0022264139,Set,2017_12_15_2038,
"[2.8, 2.8]",4,0,14,14,15,,,,,58,0,58,0,left,0.592112004873,NV,f,28,60.0022264139,Set,2017_12_15_2038,
"[2.8, 2.8]",4,0,14,14,15,,,,,59,0,59,0,left,0.758798145369,NV,f,28,60.0022264139,Set,2017_12_15_2038,
"[2.8, 2.8]",4,0,14,14,15,,,,,60,0,60,0,right,1.14210730747,NV,f,28,60.0022264139,Set,2017_12_15_2038,
"[2.8, 2.8]",4,0,14,14,15,,,,,61,0,61,0,left,1.39212329444,NV,f,28,60.0022264139,Set,2017_12_15_2038,
"[2.8, 2.8]",4,0,14,14,15,,,,,62,0,62,0,left,0.575450851407,NV,f,28,60.0022264139,Set,2017_12_15_2038,
"[2.8, 2.8]",4,0,14,14,15,,,,,63,0,63,0,left,0.925444417167,NV,f,28,60.0022264139,Set,2017_12_15_2038,
"[2.8, 2.8]",4,0,14,14,15,,,,,64,0,64,0,left,0.842133123457,NV,f,28,60.0022264139,Set,2017_12_15_2038,
"[2.8, 2.8]",4,0,14,14,15,,,,,65,0,65,0,left,0.958795934828,NV,f,28,60.0022264139,Set,2017_12_15_2038,
"[2.8, 2.8]",4,0,14,14,15,,,,,66,0,66,0,left,0.45026640952,NV,f,28,60.0022264139,Set,2017_12_15_2038,
"[2.8, 2.8]",4,0,14,14,15,,,,,67,0,67,0,down,1.77544706193,NV,f,28,60.0022264139,Set,2017_12_15_2038,
"[2.8, 2.8]",4,0,14,14,15,,,,,68,0,68,0,down,0.592116347019,NV,f,28,60.0022264139,Set,2017_12_15_2038,
"[2.8, 2.8]",4,0,14,14,15,,,,,69,0,69,0,left,0.425474022602,NV,f,28,60.0022264139,Set,2017_12_15_2038,
"[2.8, 2.8]",4,0,14,14,15,,,,,70,0,70,0,down,0.508849658829,NV,f,28,60.0022264139,Set,2017_12_15_2038,
"[2.8, 2.8]",4,0,14,14,15,,,,,71,0,71,0,down,0.292162689409,NV,f,28,60.0022264139,Set,2017_12_15_2038,
"[2.7, 2.7]",3,0,15,15,8,,,,,0,0,0,0,right,0.0669027733675,NV,f,28,60.0022264139,Set,2017_12_15_2038,
"[2.7, 2.7]",3,0,15,15,8,,,,,1,0,1,0,down,0.758781171549,NV,f,28,60.0022264139,Set,2017_12_15_2038,
"[2.7, 2.7]",3,0,15,15,8,,,,,2,0,2,0,down,0.592130162899,NV,f,28,60.0022264139,Set,2017_12_15_2038,
"[2.7, 2.7]",3,0,15,15,8,,,,,3,0,3,0,right,1.04217196576,NV,f,28,60.0022264139,Set,2017_12_15_2038,
"[2.7, 2.7]",3,0,15,15,8,,,,,4,0,4,0,right,0.225473469967,NV,f,28,60.0022264139,Set,2017_12_15_2038,
"[2.7, 2.7]",3,0,15,15,8,,,,,5,0,5,0,right,0.175448561931,NV,f,28,60.0022264139,Set,2017_12_15_2038,
"[2.7, 2.7]",3,0,15,15,8,,,,,6,0,6,0,right,0.142157439375,NV,f,28,60.0022264139,Set,2017_12_15_2038,
"[2.7, 2.7]",3,0,15,15,8,,,,,7,0,7,0,right,0.15879688217,NV,f,28,60.0022264139,Set,2017_12_15_2038,
"[2.7, 2.7]",3,0,15,15,8,,,,,8,0,8,0,right,0.792108610127,NV,f,28,60.0022264139,Set,2017_12_15_2038,
"[2.7, 2.7]",3,0,15,15,8,,,,,9,0,9,0,down,1.32545499617,NV,f,28,60.0022264139,Set,2017_12_15_2038,
"[2.7, 2.7]",3,0,15,15,8,,,,,10,0,10,0,right,0.225468733086,NV,f,28,60.0022264139,Set,2017_12_15_2038,
"[2.7, 2.7]",3,0,15,15,8,,,,,11,0,11,0,right,0.308786737412,NV,f,28,60.0022264139,Set,2017_12_15_2038,
"[2.7, 2.7]",3,0,15,15,8,,,,,12,0,12,0,right,0.275447456632,NV,f,28,60.0022264139,Set,2017_12_15_2038,
"[2.7, 2.7]",3,0,15,15,8,,,,,13,0,13,0,right,0.242125544464,NV,f,28,60.0022264139,Set,2017_12_15_2038,
"[2.7, 2.7]",3,0,15,15,8,,,,,14,0,14,0,right,0.192148794595,NV,f,28,60.0022264139,Set,2017_12_15_2038,
"[2.7, 2.7]",3,0,15,15,8,,,,,15,0,15,0,left,0.425442443462,NV,f,28,60.0022264139,Set,2017_12_15_2038,
"[2.7, 2.7]",3,0,15,15,8,,,,,16,0,16,0,left,1.05873482919,NV,f,28,60.0022264139,Set,2017_12_15_2038,
"[2.7, 2.7]",3,0,15,15,8,,,,,17,0,17,0,down,0.70874994772,NV,f,28,60.0022264139,Set,2017_12_15_2038,
"[2.7, 2.7]",3,0,15,15,8,,,,,18,0,18,0,down,0.908770632028,NV,f,28,60.0022264139,Set,2017_12_15_2038,
"[2.7, 2.7]",3,0,15,15,8,,,,,19,0,19,0,left,0.442103202222,NV,f,28,60.0022264139,Set,2017_12_15_2038,
"[2.7, 2.7]",3,0,15,15,8,,,,,20,0,20,0,left,0.292199794902,NV,f,28,60.0022264139,Set,2017_12_15_2038,
"[2.7, 2.7]",3,0,15,15,8,,,,,21,0,21,0,left,0.600396791851,NV,f,28,60.0022264139,Set,2017_12_15_2038,
"[2.7, 2.7]",3,0,15,15,8,,,,,22,0,22,0,down,0.942158070975,NV,f,28,60.0022264139,Set,2017_12_15_2038,
"[2.7, 2.7]",3,0,15,15,8,,,,,23,0,23,0,down,0.542128939211,NV,f,28,60.0022264139,Set,2017_12_15_2038,
"[2.7, 2.7]",3,0,15,15,8,,,,,24,0,24,0,left,0.608831579768,NV,f,28,60.0022264139,Set,2017_12_15_2038,
"[2.7, 2.7]",3,0,15,15,8,,,,,25,0,25,0,down,0.442143465596,NV,f,28,60.0022264139,Set,2017_12_15_2038,
"[2.7, 2.7]",3,0,15,15,8,,,,,26,0,26,0,down,0.408827079751,NV,f,28,60.0022264139,Set,2017_12_15_2038,
"[2.6, 2.6]",3,0,16,16,2,,,,,0,0,0,0,down,0.99211824176,NV,f,28,60.0022264139,Set,2017_12_15_2038,
"[2.6, 2.6]",3,0,16,16,2,,,,,1,0,1,0,right,1.00879834272,NV,f,28,60.0022264139,Set,2017_12_15_2038,
"[2.6, 2.6]",3,0,16,16,2,,,,,2,0,2,0,left,0.408815237577,NV,f,28,60.0022264139,Set,2017_12_15_2038,
"[2.6, 2.6]",3,0,16,16,2,,,,,3,0,3,0,left,1.0919430565,NV,f,28,60.0022264139,Set,2017_12_15_2038,
"[2.6, 2.6]",3,0,16,16,2,,,,,4,0,4,0,left,0.325413943297,NV,f,28,60.0022264139,Set,2017_12_15_2038,
"[2.6, 2.6]",3,0,16,16,2,,,,,5,0,5,0,left,1.22546675941,NV,f,28,60.0022264139,Set,2017_12_15_2038,
"[2.6, 2.6]",3,0,16,16,2,,,,,6,0,6,0,left,1.05881180335,NV,f,28,60.0022264139,Set,2017_12_15_2038,
"[2.6, 2.6]",3,0,16,16,2,,,,,7,0,7,0,left,0.392111847003,NV,f,28,60.0022264139,Set,2017_12_15_2038,
"[2.6, 2.6]",3,0,16,16,2,,,,,8,0,8,0,left,0.558760487242,NV,f,28,60.0022264139,Set,2017_12_15_2038,
"[2.6, 2.6]",3,0,16,16,2,,,,,9,0,9,0,left,0.392121715471,NV,f,28,60.0022264139,Set,2017_12_15_2038,
"[2.6, 2.6]",3,0,16,16,2,,,,,10,0,10,0,left,0.275533904554,NV,f,28,60.0022264139,Set,2017_12_15_2038,
"[2.6, 2.6]",3,0,16,16,2,,,,,11,0,11,0,left,0.258779987373,NV,f,28,60.0022264139,Set,2017_12_15_2038,
"[2.6, 2.6]",3,0,16,16,2,,,,,12,0,12,0,left,0.258784724225,NV,f,28,60.0022264139,Set,2017_12_15_2038,
"[2.6, 2.6]",3,0,16,16,2,,,,,13,0,13,0,left,0.250222830306,NV,f,28,60.0022264139,Set,2017_12_15_2038,
"[2.6, 2.6]",3,0,16,16,2,,,,,14,0,14,0,left,1.09211792599,NV,f,28,60.0022264139,Set,2017_12_15_2038,
"[2.6, 2.6]",3,0,16,16,2,,,,,15,0,15,0,right,0.275295876781,NV,f,28,60.0022264139,Set,2017_12_15_2038,
"[2.6, 2.6]",3,0,16,16,2,,,,,16,0,16,0,right,0.192139320861,NV,f,28,60.0022264139,Set,2017_12_15_2038,
"[2.6, 2.6]",3,0,16,16,2,,,,,17,0,17,0,right,0.175441851374,NV,f,28,60.0022264139,Set,2017_12_15_2038,
"[2.6, 2.6]",3,0,16,16,2,,,,,18,0,18,0,left,1.79213071553,NV,f,28,60.0022264139,Set,2017_12_15_2038,
"[2.6, 2.6]",3,0,16,16,2,,,,,19,0,19,0,right,0.49211903126,NV,f,28,60.0022264139,Set,2017_12_15_2038,
"[2.6, 2.6]",3,0,16,16,2,,,,,20,0,20,0,right,0.44204833344,NV,f,28,60.0022264139,Set,2017_12_15_2038,
"[2.6, 2.6]",3,0,16,16,2,,,,,21,0,21,0,left,0.442100833781,NV,f,28,60.0022264139,Set,2017_12_15_2038,
"[2.6, 2.6]",3,0,16,16,2,,,,,22,0,22,0,right,1.24211172856,NV,f,28,60.0022264139,Set,2017_12_15_2038,
"[2.6, 2.6]",3,0,16,16,2,,,,,23,0,23,0,left,0.358783618954,NV,f,28,60.0022264139,Set,2017_12_15_2038,
"[2.6, 2.6]",3,0,16,16,2,,,,,24,0,24,0,right,1.19211089963,NV,f,28,60.0022264139,Set,2017_12_15_2038,
"[2.6, 2.6]",3,0,16,16,2,,,,,25,0,25,0,left,0.500234080362,NV,f,28,60.0022264139,Set,2017_12_15_2038,
"[2.6, 2.6]",3,0,16,16,2,,,,,26,0,26,0,left,0.792082557338,NV,f,28,60.0022264139,Set,2017_12_15_2038,
"[2.6, 2.6]",3,0,16,16,2,,,,,27,0,27,0,left,1.89194921442,NV,f,28,60.0022264139,Set,2017_12_15_2038,
"[2.6, 2.6]",3,0,16,16,2,,,,,28,0,28,0,right,0.458818829677,NV,f,28,60.0022264139,Set,2017_12_15_2038,
"[2.6, 2.6]",3,0,16,16,2,,,,,29,0,29,0,right,0.358731908113,NV,f,28,60.0022264139,Set,2017_12_15_2038,
"[2.6, 2.6]",3,0,16,16,2,,,,,30,0,30,0,left,0.608787368983,NV,f,28,60.0022264139,Set,2017_12_15_2038,
"[2.6, 2.6]",3,0,16,16,2,,,,,31,0,31,0,left,0.67544540402,NV,f,28,60.0022264139,Set,2017_12_15_2038,
"[2.6, 2.6]",3,0,16,16,2,,,,,32,0,32,0,down,0.642122702324,NV,f,28,60.0022264139,Set,2017_12_15_2038,
"[2.6, 2.6]",3,0,16,16,2,,,,,33,0,33,0,left,0.475453930354,NV,f,28,60.0022264139,Set,2017_12_15_2038,
"[2.6, 2.6]",3,0,16,16,2,,,,,34,0,34,0,right,0.458868172107,NV,f,28,60.0022264139,Set,2017_12_15_2038,
"[2.6, 2.6]",3,0,16,16,2,,,,,35,0,35,0,left,1.24212278126,NV,f,28,60.0022264139,Set,2017_12_15_2038,
"[2.6, 2.6]",3,0,16,16,2,,,,,36,0,36,0,left,1.42546178569,NV,f,28,60.0022264139,Set,2017_12_15_2038,
"[2.6, 2.6]",3,0,16,16,2,,,,,37,0,37,0,right,0.292114925949,NV,f,28,60.0022264139,Set,2017_12_15_2038,
"[2.6, 2.6]",3,0,16,16,2,,,,,38,0,38,0,right,0.275464825187,NV,f,28,60.0022264139,Set,2017_12_15_2038,
"[2.6, 2.6]",3,0,16,16,2,,,,,39,0,39,0,right,0.225478601584,NV,f,28,60.0022264139,Set,2017_12_15_2038,
"[2.6, 2.6]",3,0,16,16,2,,,,,40,0,40,0,right,0.192146426154,NV,f,28,60.0022264139,Set,2017_12_15_2038,
"[2.6, 2.6]",3,0,16,16,2,,,,,41,0,41,0,right,0.275450219837,NV,f,28,60.0022264139,Set,2017_12_15_2038,
"[2.6, 2.6]",3,0,16,16,2,,,,,42,0,42,0,right,0.19210537328,NV,f,28,60.0022264139,Set,2017_12_15_2038,
"[2.6, 2.6]",3,0,16,16,2,,,,,43,0,43,0,right,0.208828895557,NV,f,28,60.0022264139,Set,2017_12_15_2038,
"[2.6, 2.6]",3,0,16,16,2,,,,,44,0,44,0,right,0.258805250662,NV,f,28,60.0022264139,Set,2017_12_15_2038,
"[2.6, 2.6]",3,0,16,16,2,,,,,45,0,45,0,right,0.192141294538,NV,f,28,60.0022264139,Set,2017_12_15_2038,
"[2.6, 2.6]",3,0,16,16,2,,,,,46,0,46,0,right,0.125430759188,NV,f,28,60.0022264139,Set,2017_12_15_2038,
"[2.6, 2.6]",3,0,16,16,2,,,,,47,0,47,0,left,0.225459654088,NV,f,28,60.0022264139,Set,2017_12_15_2038,
"[2.6, 2.6]",3,0,16,16,2,,,,,48,0,48,0,left,0.342107465403,NV,f,28,60.0022264139,Set,2017_12_15_2038,
"[2.6, 2.6]",3,0,16,16,2,,,,,49,0,49,0,right,0.275524825556,NV,f,28,60.0022264139,Set,2017_12_15_2038,
"[2.6, 2.6]",3,0,16,16,2,,,,,50,0,50,0,right,0.775486930565,NV,f,28,60.0022264139,Set,2017_12_15_2038,
"[2.6, 2.6]",3,0,16,16,2,,,,,51,0,51,0,left,0.575448482967,NV,f,28,60.0022264139,Set,2017_12_15_2038,
"[2.6, 2.6]",3,0,16,16,2,,,,,52,0,52,0,left,0.292140978738,NV,f,28,60.0022264139,Set,2017_12_15_2038,
"[2.6, 2.6]",3,0,16,16,2,,,,,53,0,53,0,right,0.408825106046,NV,f,28,60.0022264139,Set,2017_12_15_2038,
"[2.6, 2.6]",3,0,16,16,2,,,,,54,0,54,0,right,0.7502208566,NV,f,28,60.0022264139,Set,2017_12_15_2038,
"[2.6, 2.6]",3,0,16,16,2,,,,,55,0,55,0,right,0.40877852682,NV,f,28,60.0022264139,Set,2017_12_15_2038,
"[2.6, 2.6]",3,0,16,16,2,,,,,56,0,56,0,down,1.67545645672,NV,f,28,60.0022264139,Set,2017_12_15_2038,
"[2.6, 2.6]",3,0,16,16,2,,,,,57,0,57,0,right,0.342135097133,NV,f,28,60.0022264139,Set,2017_12_15_2038,
"[2.6, 2.6]",3,0,16,16,2,,,,,58,0,58,0,left,1.07548519375,NV,f,28,60.0022264139,Set,2017_12_15_2038,
"[2.6, 2.6]",3,0,16,16,2,,,,,59,0,59,0,right,0.358809277008,NV,f,28,60.0022264139,Set,2017_12_15_2038,
"[2.6, 2.6]",3,0,16,16,2,,,,,60,0,60,0,right,0.775481009478,NV,f,28,60.0022264139,Set,2017_12_15_2038,
"[2.6, 2.6]",3,0,16,16,2,,,,,61,0,61,0,right,0.425461785693,NV,f,28,60.0022264139,Set,2017_12_15_2038,
"[2.6, 2.6]",3,0,16,16,2,,,,,62,0,62,0,right,1.19211958387,NV,f,28,60.0022264139,Set,2017_12_15_2038,
"[2.6, 2.6]",3,0,16,16,2,,,,,63,0,63,0,down,0.608796842716,NV,f,28,60.0022264139,Set,2017_12_15_2038,
"[2.6, 2.6]",3,0,16,16,2,,,,,64,0,64,0,left,0.641949411802,NV,f,28,60.0022264139,Set,2017_12_15_2038,
"[2.6, 2.6]",3,0,16,16,2,,,,,65,0,65,0,right,0.325410390651,NV,f,28,60.0022264139,Set,2017_12_15_2038,
"[2.6, 2.6]",3,0,16,16,2,,,,,66,0,66,0,left,0.725445838238,NV,f,28,60.0022264139,Set,2017_12_15_2038,
"[2.6, 2.6]",3,0,16,16,2,,,,,67,0,67,0,left,0.575455983024,NV,f,28,60.0022264139,Set,2017_12_15_2038,
"[2.6, 2.6]",3,0,16,16,2,,,,,68,0,68,0,left,0.425457838282,NV,f,28,60.0022264139,Set,2017_12_15_2038,
"[2.6, 2.6]",3,0,16,16,2,,,,,69,0,69,0,left,0.358794671658,NV,f,28,60.0022264139,Set,2017_12_15_2038,
"[2.6, 2.6]",3,0,16,16,2,,,,,70,0,70,0,right,0.792110583832,NV,f,28,60.0022264139,Set,2017_12_15_2038,
"[2.6, 2.6]",3,0,16,16,2,,,,,71,0,71,0,left,0.358518748923,NV,f,28,60.0022264139,Set,2017_12_15_2038,
"[2.6, 2.6]",3,0,16,16,2,,,,,72,0,72,0,left,0.292165452585,NV,f,28,60.0022264139,Set,2017_12_15_2038,
"[2.6, 2.6]",3,0,16,16,2,,,,,73,0,73,0,right,0.292130715534,NV,f,28,60.0022264139,Set,2017_12_15_2038,
"[2.6, 2.6]",3,0,16,16,2,,,,,74,0,74,0,down,1.3421275971,NV,f,28,60.0022264139,Set,2017_12_15_2038,
"[2.6, 2.6]",3,0,16,16,2,,,,,75,0,75,0,left,0.458826724498,NV,f,28,60.0022264139,Set,2017_12_15_2038,
"[2.6, 2.6]",3,0,16,16,2,,,,,76,0,76,0,left,0.42546533834,NV,f,28,60.0022264139,Set,2017_12_15_2038,
"[2.6, 2.6]",3,0,16,16,2,,,,,77,0,77,0,left,0.342131939222,NV,f,28,60.0022264139,Set,2017_12_15_2038,
"[2.6, 2.6]",3,0,16,16,2,,,,,78,0,78,0,left,0.175469088368,NV,f,28,60.0022264139,Set,2017_12_15_2038,
"[2.6, 2.6]",3,0,16,16,2,,,,,79,0,79,0,left,0.275437588192,NV,f,28,60.0022264139,Set,2017_12_15_2038,
"[2.6, 2.6]",3,0,16,16,2,,,,,80,0,80,0,left,0.792109399597,NV,f,28,60.0022264139,Set,2017_12_15_2038,
"[2.6, 2.6]",3,0,16,16,2,,,,,81,0,81,0,left,0.30025523837,NV,f,28,60.0022264139,Set,2017_12_15_2038,
"[2.6, 2.6]",3,0,16,16,2,,,,,82,0,82,0,left,0.342095623229,NV,f,28,60.0022264139,Set,2017_12_15_2038,
"[2.6, 2.6]",3,0,16,16,2,,,,,83,0,83,0,down,0.858782039984,NV,f,28,60.0022264139,Set,2017_12_15_2038,
"[2.6, 2.6]",3,0,16,16,2,,,,,84,0,84,0,left,0.292108610127,NV,f,28,60.0022264139,Set,2017_12_15_2038,
"[2.6, 2.6]",3,0,16,16,2,,,,,85,0,85,0,left,0.408808132255,NV,f,28,60.0022264139,Set,2017_12_15_2038,
"[2.6, 2.6]",3,0,16,16,2,,,,,86,0,86,0,left,0.242145281401,NV,f,28,60.0022264139,Set,2017_12_15_2038,
"[2.6, 2.6]",3,0,16,16,2,,,,,87,0,87,0,left,0.275423377578,NV,f,28,60.0022264139,Set,2017_12_15_2038,
"[2.6, 2.6]",3,0,16,16,2,,,,,88,0,88,0,left,0.37545937777,NV,f,28,60.0022264139,Set,2017_12_15_2038,
"[2.6, 2.6]",3,0,16,16,2,,,,,89,0,89,0,left,0.492144294549,NV,f,28,60.0022264139,Set,2017_12_15_2038,
"[2.6, 2.6]",3,0,16,16,2,,,,,90,0,90,0,down,0.475464983087,NV,f,28,60.0022264139,Set,2017_12_15_2038,
"[2.6, 2.6]",3,0,16,16,2,,,,,91,0,91,0,down,0.625441022392,NV,f,28,60.0022264139,Set,2017_12_15_2038,
"[2.7, 2.7]",4,0,17,17,9,,,,,0,0,0,0,right,1.20868955259,NV,f,28,60.0022264139,Set,2017_12_15_2038,
"[2.7, 2.7]",4,0,17,17,9,,,,,1,0,1,0,left,0.800221290818,NV,f,28,60.0022264139,Set,2017_12_15_2038,
"[2.7, 2.7]",4,0,17,17,9,,,,,2,0,2,0,right,1.00026329106,NV,f,28,60.0022264139,Set,2017_12_15_2038,
"[2.7, 2.7]",4,0,17,17,9,,,,,3,0,3,0,right,0.450262067374,NV,f,28,60.0022264139,Set,2017_12_15_2038,
"[2.7, 2.7]",4,0,17,17,9,,,,,4,0,4,0,right,0.592134899751,NV,f,28,60.0022264139,Set,2017_12_15_2038,
"[2.7, 2.7]",4,0,17,17,9,,,,,5,0,5,0,right,0.158806355932,NV,f,28,60.0022264139,Set,2017_12_15_2038,
"[2.7, 2.7]",4,0,17,17,9,,,,,6,0,6,0,right,0.225454522501,NV,f,28,60.0022264139,Set,2017_12_15_2038,
"[2.7, 2.7]",4,0,17,17,9,,,,,7,0,7,0,right,0.242140149814,NV,f,28,60.0022264139,Set,2017_12_15_2038,
"[2.7, 2.7]",4,0,17,17,9,,,,,8,0,8,0,right,0.15878622423,NV,f,28,60.0022264139,Set,2017_12_15_2038,
"[2.7, 2.7]",4,0,17,17,9,,,,,9,0,9,0,right,0.183583742735,NV,f,28,60.0022264139,Set,2017_12_15_2038,
"[2.7, 2.7]",4,0,17,17,9,,,,,10,0,10,0,left,0.508780184726,NV,f,28,60.0022264139,Set,2017_12_15_2038,
"[2.7, 2.7]",4,0,17,17,9,,,,,11,0,11,0,right,0.358797829569,NV,f,28,60.0022264139,Set,2017_12_15_2038,
"[2.7, 2.7]",4,0,17,17,9,,,,,12,0,12,0,right,0.442122149689,NV,f,28,60.0022264139,Set,2017_12_15_2038,
"[2.7, 2.7]",4,0,17,17,9,,,,,13,0,13,0,left,0.525466996245,NV,f,28,60.0022264139,Set,2017_12_15_2038,
"[2.7, 2.7]",4,0,17,17,9,,,,,14,0,14,0,left,0.375461746211,NV,f,28,60.0022264139,Set,2017_12_15_2038,
"[2.7, 2.7]",4,0,17,17,9,,,,,15,0,15,0,left,0.375511088612,NV,f,28,60.0022264139,Set,2017_12_15_2038,
"[2.7, 2.7]",4,0,17,17,9,,,,,16,0,16,0,right,0.225425311801,NV,f,28,60.0022264139,Set,2017_12_15_2038,
"[2.7, 2.7]",4,0,17,17,9,,,,,17,0,17,0,right,0.225520838692,NV,f,28,60.0022264139,Set,2017_12_15_2038,
"[2.7, 2.7]",4,0,17,17,9,,,,,18,0,18,0,right,0.19213142604,NV,f,28,60.0022264139,Set,2017_12_15_2038,
"[2.7, 2.7]",4,0,17,17,9,,,,,19,0,19,0,right,0.425456654106,NV,f,28,60.0022264139,Set,2017_12_15_2038,
"[2.7, 2.7]",4,0,17,17,9,,,,,20,0,20,0,right,0.425444811903,NV,f,28,60.0022264139,Set,2017_12_15_2038,
"[2.7, 2.7]",4,0,17,17,9,,,,,21,0,21,0,left,0.408786421613,NV,f,28,60.0022264139,Set,2017_12_15_2038,
"[2.7, 2.7]",4,0,17,17,9,,,,,22,0,22,0,left,0.44207991258,NV,f,28,60.0022264139,Set,2017_12_15_2038,
"[2.7, 2.7]",4,0,17,17,9,,,,,23,0,23,0,left,0.458817645471,NV,f,28,60.0022264139,Set,2017_12_15_2038,
"[2.7, 2.7]",4,0,17,17,9,,,,,24,0,24,0,right,0.675444219814,NV,f,28,60.0022264139,Set,2017_12_15_2038,
"[2.7, 2.7]",4,0,17,17,9,,,,,25,0,25,0,left,0.358793487452,NV,f,28,60.0022264139,Set,2017_12_15_2038,
"[2.7, 2.7]",4,0,17,17,9,,,,,26,0,26,0,left,0.2921212418,NV,f,28,60.0022264139,Set,2017_12_15_2038,
"[2.7, 2.7]",4,0,17,17,9,,,,,27,0,27,0,left,0.242125544435,NV,f,28,60.0022264139,Set,2017_12_15_2038,
"[2.7, 2.7]",4,0,17,17,9,,,,,28,0,28,0,right,0.425460996223,NV,f,28,60.0022264139,Set,2017_12_15_2038,
"[2.7, 2.7]",4,0,17,17,9,,,,,29,0,29,0,right,1.10876802675,NV,f,28,60.0022264139,Set,2017_12_15_2038,
"[2.7, 2.7]",4,0,17,17,9,,,,,30,0,30,0,right,0.308787132119,NV,f,28,60.0022264139,Set,2017_12_15_2038,
"[2.7, 2.7]",4,0,17,17,9,,,,,31,0,31,0,right,0.175466719927,NV,f,28,60.0022264139,Set,2017_12_15_2038,
"[2.7, 2.7]",4,0,17,17,9,,,,,32,0,32,0,down,1.25879893484,NV,f,28,60.0022264139,Set,2017_12_15_2038,
"[2.7, 2.7]",4,0,17,17,9,,,,,33,0,33,0,down,0.642128228676,NV,f,28,60.0022264139,Set,2017_12_15_2038,
"[2.7, 2.7]",4,0,17,17,9,,,,,34,0,34,0,right,1.05879759273,NV,f,28,60.0022264139,Set,2017_12_15_2038,
"[2.7, 2.7]",4,0,17,17,9,,,,,35,0,35,0,left,0.542123807594,NV,f,28,60.0022264139,Set,2017_12_15_2038,
"[2.7, 2.7]",4,0,17,17,9,,,,,36,0,36,0,left,0.442141886655,NV,f,28,60.0022264139,Set,2017_12_15_2038,
"[2.7, 2.7]",4,0,17,17,9,,,,,37,0,37,0,left,0.542104070628,NV,f,28,60.0022264139,Set,2017_12_15_2038,
"[2.7, 2.7]",4,0,17,17,9,,,,,38,0,38,0,left,0.908791158465,NV,f,28,60.0022264139,Set,2017_12_15_2038,
"[2.7, 2.7]",4,0,17,17,9,,,,,39,0,39,0,left,0.442133202392,NV,f,28,60.0022264139,Set,2017_12_15_2038,
"[2.7, 2.7]",4,0,17,17,9,,,,,40,0,40,0,left,1.22549083849,NV,f,28,60.0022264139,Set,2017_12_15_2038,
"[2.7, 2.7]",4,0,17,17,9,,,,,41,0,41,0,down,0.725460838323,NV,f,28,60.0022264139,Set,2017_12_15_2038,
"[2.7, 2.7]",4,0,17,17,9,,,,,42,0,42,0,right,0.392123294412,NV,f,28,60.0022264139,Set,2017_12_15_2038,
"[2.7, 2.7]",4,0,17,17,9,,,,,43,0,43,0,right,0.425424680201,NV,f,28,60.0022264139,Set,2017_12_15_2038,
"[2.7, 2.7]",4,0,17,17,9,,,,,44,0,44,0,right,0.75879814534,NV,f,28,60.0022264139,Set,2017_12_15_2038,
"[2.7, 2.7]",4,0,17,17,9,,,,,45,0,45,0,right,0.208784290007,NV,f,28,60.0022264139,Set,2017_12_15_2038,
"[2.7, 2.7]",4,0,17,17,9,,,,,46,0,46,0,left,0.358805724361,NV,f,28,60.0022264139,Set,2017_12_15_2038,
"[2.7, 2.7]",4,0,17,17,9,,,,,47,0,47,0,left,1.02546896995,NV,f,28,60.0022264139,Set,2017_12_15_2038,
"[2.7, 2.7]",4,0,17,17,9,,,,,48,0,48,0,left,0.342146149807,NV,f,28,60.0022264139,Set,2017_12_15_2038,
"[2.7, 2.7]",4,0,17,17,9,,,,,49,0,49,0,left,0.275433640782,NV,f,28,60.0022264139,Set,2017_12_15_2038,
"[2.7, 2.7]",4,0,17,17,9,,,,,50,0,50,0,left,0.275428509165,NV,f,28,60.0022264139,Set,2017_12_15_2038,
"[2.7, 2.7]",4,0,17,17,9,,,,,51,0,51,0,left,0.258789461106,NV,f,28,60.0022264139,Set,2017_12_15_2038,
"[2.7, 2.7]",4,0,17,17,9,,,,,52,0,52,0,left,1.24210896538,NV,f,28,60.0022264139,Set,2017_12_15_2038,
"[2.7, 2.7]",4,0,17,17,9,,,,,53,0,53,0,right,0.308783974207,NV,f,28,60.0022264139,Set,2017_12_15_2038,
"[2.7, 2.7]",4,0,17,17,9,,,,,54,0,54,0,right,0.14214086032,NV,f,28,60.0022264139,Set,2017_12_15_2038,
"[2.7, 2.7]",4,0,17,17,9,,,,,55,0,55,0,right,0.192116425984,NV,f,28,60.0022264139,Set,2017_12_15_2038,
"[2.7, 2.7]",4,0,17,17,9,,,,,56,0,56,0,right,0.142136518174,NV,f,28,60.0022264139,Set,2017_12_15_2038,
"[2.7, 2.7]",4,0,17,17,9,,,,,57,0,57,0,right,0.308773316268,NV,f,28,60.0022264139,Set,2017_12_15_2038,
"[2.7, 2.7]",4,0,17,17,9,,,,,58,0,58,0,right,0.225454917236,NV,f,28,60.0022264139,Set,2017_12_15_2038,
"[2.7, 2.7]",4,0,17,17,9,,,,,59,0,59,0,right,0.325454601436,NV,f,28,60.0022264139,Set,2017_12_15_2038,
"[2.7, 2.7]",4,0,17,17,9,,,,,60,0,60,0,right,0.558767197799,NV,f,28,60.0022264139,Set,2017_12_15_2038,
"[2.7, 2.7]",4,0,17,17,9,,,,,61,0,61,0,right,0.292125978682,NV,f,28,60.0022264139,Set,2017_12_15_2038,
"[2.7, 2.7]",4,0,17,17,9,,,,,62,0,62,0,right,0.258746829262,NV,f,28,60.0022264139,Set,2017_12_15_2038,
"[2.7, 2.7]",4,0,17,17,9,,,,,63,0,63,0,right,0.225443469797,NV,f,28,60.0022264139,Set,2017_12_15_2038,
"[2.7, 2.7]",4,0,17,17,9,,,,,64,0,64,0,right,0.242105017998,NV,f,28,60.0022264139,Set,2017_12_15_2038,
"[2.7, 2.7]",4,0,17,17,9,,,,,65,0,65,0,left,0.425495733245,NV,f,28,60.0022264139,Set,2017_12_15_2038,
"[2.7, 2.7]",4,0,17,17,9,,,,,66,0,66,0,down,0.658799250639,NV,f,28,60.0022264139,Set,2017_12_15_2038,
"[2.7, 2.7]",4,0,17,17,9,,,,,67,0,67,0,left,0.375477535796,NV,f,28,60.0022264139,Set,2017_12_15_2038,
"[2.7, 2.7]",4,0,17,17,9,,,,,68,0,68,0,right,0.458787645301,NV,f,28,60.0022264139,Set,2017_12_15_2038,
"[2.7, 2.7]",4,0,17,17,9,,,,,69,0,69,0,left,0.508785711078,NV,f,28,60.0022264139,Set,2017_12_15_2038,
"[2.7, 2.7]",4,0,17,17,9,,,,,70,0,70,0,left,0.325435259234,NV,f,28,60.0022264139,Set,2017_12_15_2038,
"[2.7, 2.7]",4,0,17,17,9,,,,,71,0,71,0,left,0.266897010151,NV,f,28,60.0022264139,Set,2017_12_15_2038,
"[2.7, 2.7]",4,0,17,17,9,,,,,72,0,72,0,left,0.20885218514,NV,f,28,60.0022264139,Set,2017_12_15_2038,
"[2.7, 2.7]",4,0,17,17,9,,,,,73,0,73,0,left,0.258786303195,NV,f,28,60.0022264139,Set,2017_12_15_2038,
"[2.7, 2.7]",4,0,17,17,9,,,,,74,0,74,0,left,0.142138491879,NV,f,28,60.0022264139,Set,2017_12_15_2038,
"[2.7, 2.7]",4,0,17,17,9,,,,,75,0,75,0,left,0.158794908493,NV,f,28,60.0022264139,Set,2017_12_15_2038,
"[2.7, 2.7]",4,0,17,17,9,,,,,76,0,76,0,left,0.208786658448,NV,f,28,60.0022264139,Set,2017_12_15_2038,
"[2.7, 2.7]",4,0,17,17,9,,,,,77,0,77,0,left,0.342147334042,NV,f,28,60.0022264139,Set,2017_12_15_2038,
"[2.7, 2.7]",4,0,17,17,9,,,,,78,0,78,0,left,0.258783540019,NV,f,28,60.0022264139,Set,2017_12_15_2038,
"[2.7, 2.7]",4,0,17,17,9,,,,,79,0,79,0,left,0.0921206891362,NV,f,28,60.0022264139,Set,2017_12_15_2038,
"[2.7, 2.7]",4,0,17,17,9,,,,,80,0,80,0,left,0.358630854869,NV,f,28,60.0022264139,Set,2017_12_15_2038,
"[2.7, 2.7]",4,0,17,17,9,,,,,81,0,81,0,left,0.29213426818,NV,f,28,60.0022264139,Set,2017_12_15_2038,
"[2.7, 2.7]",4,0,17,17,9,,,,,82,0,82,0,left,0.208795737475,NV,f,28,60.0022264139,Set,2017_12_15_2038,
"[2.7, 2.7]",4,0,17,17,9,,,,,83,0,83,0,left,0.375465298886,NV,f,28,60.0022264139,Set,2017_12_15_2038,
"[2.7, 2.7]",4,0,17,17,9,,,,,84,0,84,0,right,0.242129097081,NV,f,28,60.0022264139,Set,2017_12_15_2038,
"[2.7, 2.7]",4,0,17,17,9,,,,,85,0,85,0,down,0.94210991275,NV,f,28,60.0022264139,Set,2017_12_15_2038,
"[2.7, 2.7]",4,0,17,17,9,,,,,86,0,86,0,right,0.325462890964,NV,f,28,60.0022264139,Set,2017_12_15_2038,
"[2.7, 2.7]",4,0,17,17,9,,,,,87,0,87,0,right,0.192140899802,NV,f,28,60.0022264139,Set,2017_12_15_2038,
"[2.7, 2.7]",4,0,17,17,9,,,,,88,0,88,0,right,0.258790250547,NV,f,28,60.0022264139,Set,2017_12_15_2038,
"[2.7, 2.7]",4,0,17,17,9,,,,,89,0,89,0,down,0.433414596977,NV,f,28,60.0022264139,Set,2017_12_15_2038,
"[2.7, 2.7]",4,0,17,17,9,,,,,90,0,90,0,right,0.458798698004,NV,f,28,60.0022264139,Set,2017_12_15_2038,
"[2.7, 2.7]",4,0,17,17,9,,,,,91,0,91,0,right,0.325439601351,NV,f,28,60.0022264139,Set,2017_12_15_2038,
"[2.7, 2.7]",4,0,17,17,9,,,,,92,0,92,0,left,1.15868477625,NV,f,28,60.0022264139,Set,2017_12_15_2038,
"[2.7, 2.7]",4,0,17,17,9,,,,,93,0,93,0,down,0.483568190015,NV,f,28,60.0022264139,Set,2017_12_15_2038,
"[2.7, 2.7]",4,0,17,17,9,,,,,94,0,94,0,right,0.350324751984,NV,f,28,60.0022264139,Set,2017_12_15_2038,
"[2.7, 2.7]",4,0,17,17,9,,,,,95,0,95,0,right,0.283723559376,NV,f,28,60.0022264139,Set,2017_12_15_2038,
"[2.7, 2.7]",4,0,17,17,9,,,,,96,0,96,0,right,0.233574308484,NV,f,28,60.0022264139,Set,2017_12_15_2038,
"[2.7, 2.7]",4,0,17,17,9,,,,,97,0,97,0,right,0.200312791363,NV,f,28,60.0022264139,Set,2017_12_15_2038,
"[2.7, 2.7]",4,0,17,17,9,,,,,98,0,98,0,right,0.142122307559,NV,f,28,60.0022264139,Set,2017_12_15_2038,
"[2.7, 2.7]",4,0,17,17,9,,,,,99,0,99,0,right,0.258781171578,NV,f,28,60.0022264139,Set,2017_12_15_2038,
"[2.7, 2.7]",6,0,18,18,11,,,,,0,0,0,0,right,0.758793803223,NV,f,28,60.0022264139,Set,2017_12_15_2038,
"[2.7, 2.7]",6,0,18,18,11,,,,,1,0,1,0,right,0.525456733012,NV,f,28,60.0022264139,Set,2017_12_15_2038,
"[2.7, 2.7]",6,0,18,18,11,,,,,2,0,2,0,left,0.492142320843,NV,f,28,60.0022264139,Set,2017_12_15_2038,
"[2.7, 2.7]",6,0,18,18,11,,,,,3,0,3,0,left,0.308796211146,NV,f,28,60.0022264139,Set,2017_12_15_2038,
"[2.7, 2.7]",6,0,18,18,11,,,,,4,0,4,0,left,1.65877635576,NV,f,28,60.0022264139,Set,2017_12_15_2038,
"[2.7, 2.7]",6,0,18,18,11,,,,,5,0,5,0,left,0.392079478392,NV,f,28,60.0022264139,Set,2017_12_15_2038,
"[2.7, 2.7]",6,0,18,18,11,,,,,6,0,6,0,right,0.475464193616,NV,f,28,60.0022264139,Set,2017_12_15_2038,
"[2.7, 2.7]",6,0,18,18,11,,,,,7,0,7,0,right,0.692104189045,NV,f,28,60.0022264139,Set,2017_12_15_2038,
"[2.7, 2.7]",6,0,18,18,11,,,,,8,0,8,0,right,0.225446232944,NV,f,28,60.0022264139,Set,2017_12_15_2038,
"[2.7, 2.7]",6,0,18,18,11,,,,,9,0,9,0,left,0.692131031305,NV,f,28,60.0022264139,Set,2017_12_15_2038,
"[2.7, 2.7]",6,0,18,18,11,,,,,10,0,10,0,right,0.308876343188,NV,f,28,60.0022264139,Set,2017_12_15_2038,
"[2.7, 2.7]",6,0,18,18,11,,,,,11,0,11,0,left,0.458836592967,NV,f,28,60.0022264139,Set,2017_12_15_2038,
"[2.7, 2.7]",6,0,18,18,11,,,,,12,0,12,0,right,0.458800276945,NV,f,28,60.0022264139,Set,2017_12_15_2038,
"[2.7, 2.7]",6,0,18,18,11,,,,,13,0,13,0,left,0.325449864584,NV,f,28,60.0022264139,Set,2017_12_15_2038,
"[2.7, 2.7]",6,0,18,18,11,,,,,14,0,14,0,right,0.242128702346,NV,f,28,60.0022264139,Set,2017_12_15_2038,
"[2.7, 2.7]",6,0,18,18,11,,,,,15,0,15,0,left,0.242103044293,NV,f,28,60.0022264139,Set,2017_12_15_2038,
"[2.7, 2.7]",6,0,18,18,11,,,,,16,0,16,0,right,0.27544508822,NV,f,28,60.0022264139,Set,2017_12_15_2038,
"[2.7, 2.7]",6,0,18,18,11,,,,,17,0,17,0,left,0.392129215528,NV,f,28,60.0022264139,Set,2017_12_15_2038,
"[2.7, 2.7]",6,0,18,18,11,,,,,18,0,18,0,right,0.642136123439,NV,f,28,60.0022264139,Set,2017_12_15_2038,
"[2.7, 2.7]",6,0,18,18,11,,,,,19,0,19,0,right,0.325454601436,NV,f,28,60.0022264139,Set,2017_12_15_2038,
"[2.7, 2.7]",6,0,18,18,11,,,,,20,0,20,0,right,0.508813737571,NV,f,28,60.0022264139,Set,2017_12_15_2038,
"[2.7, 2.7]",6,0,18,18,11,,,,,21,0,21,0,left,0.508799132193,NV,f,28,60.0022264139,Set,2017_12_15_2038,
"[2.7, 2.7]",6,0,18,18,11,,,,,22,0,22,0,left,0.292142162973,NV,f,28,60.0022264139,Set,2017_12_15_2038,
"[2.7, 2.7]",6,0,18,18,11,,,,,23,0,23,0,right,0.358733881818,NV,f,28,60.0022264139,Set,2017_12_15_2038,
"[2.7, 2.7]",6,0,18,18,11,,,,,24,0,24,0,left,0.358606381022,NV,f,28,60.0022264139,Set,2017_12_15_2038,
"[2.7, 2.7]",6,0,18,18,11,,,,,25,0,25,0,right,0.158794119023,NV,f,28,60.0022264139,Set,2017_12_15_2038,
"[2.7, 2.7]",6,0,18,18,11,,,,,26,0,26,0,left,0.925473233132,NV,f,28,60.0022264139,Set,2017_12_15_2038,
"[2.7, 2.7]",6,0,18,18,11,,,,,27,0,27,0,left,0.675452904077,NV,f,28,60.0022264139,Set,2017_12_15_2038,
"[2.7, 2.7]",6,0,18,18,11,,,,,28,0,28,0,left,0.558801540115,NV,f,28,60.0022264139,Set,2017_12_15_2038,
"[2.7, 2.7]",6,0,18,18,11,,,,,29,0,29,0,right,0.325452627731,NV,f,28,60.0022264139,Set,2017_12_15_2038,
"[2.7, 2.7]",6,0,18,18,11,,,,,30,0,30,0,left,0.425485864776,NV,f,28,60.0022264139,Set,2017_12_15_2038,
"[2.7, 2.7]",6,0,18,18,11,,,,,31,0,31,0,right,0.175442246109,NV,f,28,60.0022264139,Set,2017_12_15_2038,
"[2.7, 2.7]",6,0,18,18,11,,,,,32,0,32,0,left,0.392124083912,NV,f,28,60.0022264139,Set,2017_12_15_2038,
"[2.7, 2.7]",6,0,18,18,11,,,,,33,0,33,0,right,0.358780855779,NV,f,28,60.0022264139,Set,2017_12_15_2038,
"[2.7, 2.7]",6,0,18,18,11,,,,,34,0,34,0,left,0.375487799,NV,f,28,60.0022264139,Set,2017_12_15_2038,
"[2.7, 2.7]",6,0,18,18,11,,,,,35,0,35,0,left,0.358791908482,NV,f,28,60.0022264139,Set,2017_12_15_2038,
"[2.7, 2.7]",6,0,18,18,11,,,,,36,0,36,0,left,0.542121833889,NV,f,28,60.0022264139,Set,2017_12_15_2038,
"[2.7, 2.7]",6,0,18,18,11,,,,,37,0,37,0,down,2.75874011868,NV,f,28,60.0022264139,Set,2017_12_15_2038,
"[2.7, 2.7]",6,0,18,18,11,,,,,38,0,38,0,down,1.20877757942,NV,f,28,60.0022264139,Set,2017_12_15_2038,
"[2.7, 2.7]",6,0,18,18,11,,,,,39,0,39,0,left,1.03354849253,NV,f,28,60.0022264139,Set,2017_12_15_2038,
"[2.7, 2.7]",6,0,18,18,11,,,,,40,0,40,0,left,0.375435693422,NV,f,28,60.0022264139,Set,2017_12_15_2038,
"[2.7, 2.7]",6,0,18,18,11,,,,,41,0,41,0,left,0.875468456768,NV,f,28,60.0022264139,Set,2017_12_15_2038,
"[2.7, 2.7]",6,0,18,18,11,,,,,42,0,42,0,right,0.392111846973,NV,f,28,60.0022264139,Set,2017_12_15_2038,
"[2.7, 2.7]",6,0,18,18,11,,,,,43,0,43,0,right,0.342073912558,NV,f,28,60.0022264139,Set,2017_12_15_2038,
"[2.7, 2.7]",6,0,18,18,11,,,,,44,0,44,0,right,0.208814684942,NV,f,28,60.0022264139,Set,2017_12_15_2038,
"[2.7, 2.7]",6,0,18,18,11,,,,,45,0,45,0,left,0.325474733138,NV,f,28,60.0022264139,Set,2017_12_15_2038,
"[2.7, 2.7]",6,0,18,18,11,,,,,46,0,46,0,left,0.358795066393,NV,f,28,60.0022264139,Set,2017_12_15_2038,
"[2.7, 2.7]",6,0,18,18,11,,,,,47,0,47,0,left,0.308838053519,NV,f,28,60.0022264139,Set,2017_12_15_2038,
"[2.7, 2.7]",6,0,18,18,11,,,,,48,0,48,0,down,6.17539843006,NV,f,28,60.0022264139,Set,2017_12_15_2038,
"[2.7, 2.7]",6,0,18,18,11,,,,,49,0,49,0,down,2.82540644324,NV,f,28,60.0022264139,Set,2017_12_15_2038,
"[2.9, 2.9]",3,0,19,19,20,,,,,0,0,0,0,down,1.43359657179,NV,f,28,60.0022264139,Set,2017_12_15_2038,
"[2.9, 2.9]",3,0,19,19,20,,,,,1,0,1,0,left,0.425456259341,NV,f,28,60.0022264139,Set,2017_12_15_2038,
"[2.9, 2.9]",3,0,19,19,20,,,,,2,0,2,0,down,1.22545294353,NV,f,28,60.0022264139,Set,2017_12_15_2038,
"[2.9, 2.9]",3,0,19,19,20,,,,,3,0,3,0,left,0.458789224242,NV,f,28,60.0022264139,Set,2017_12_15_2038,
"[2.9, 2.9]",3,0,19,19,20,,,,,4,0,4,0,left,0.558773513651,NV,f,28,60.0022264139,Set,2017_12_15_2038,
"[2.9, 2.9]",3,0,19,19,20,,,,,5,0,5,0,left,0.25878511896,NV,f,28,60.0022264139,Set,2017_12_15_2038,
"[2.9, 2.9]",3,0,19,19,20,,,,,6,0,6,0,right,0.525459496188,NV,f,28,60.0022264139,Set,2017_12_15_2038,
"[2.9, 2.9]",3,0,19,19,20,,,,,7,0,7,0,left,0.142117965472,NV,f,28,60.0022264139,Set,2017_12_15_2038,
"[2.9, 2.9]",3,0,19,19,20,,,,,8,0,8,0,left,0.175469483103,NV,f,28,60.0022264139,Set,2017_12_15_2038,
"[2.9, 2.9]",3,0,19,19,20,,,,,9,0,9,0,right,0.542136044503,NV,f,28,60.0022264139,Set,2017_12_15_2038,
"[2.9, 2.9]",3,0,19,19,20,,,,,10,0,10,0,left,0.392176189489,NV,f,28,60.0022264139,Set,2017_12_15_2038,
"[2.9, 2.9]",3,0,19,19,20,,,,,11,0,11,0,left,0.492115083849,NV,f,28,60.0022264139,Set,2017_12_15_2038,
"[2.9, 2.9]",3,0,19,19,20,,,,,12,0,12,0,down,5.32523315272,NV,f,28,60.0022264139,Set,2017_12_15_2038,
"[2.9, 2.9]",3,0,19,19,20,,,,,13,0,13,0,down,0.308804500644,NV,f,28,60.0022264139,Set,2017_12_15_2038,
"[3.0, 3.0]",4,0,20,20,27,,,,,0,0,0,0,down,0.70879455324,NV,f,28,60.0022264139,Set,2017_12_15_2038,
"[3.0, 3.0]",4,0,20,20,27,,,,,1,0,1,0,left,0.542143149825,NV,f,28,60.0022264139,Set,2017_12_15_2038,
"[3.0, 3.0]",4,0,20,20,27,,,,,2,0,2,0,left,0.27549048324,NV,f,28,60.0022264139,Set,2017_12_15_2038,
"[3.0, 3.0]",4,0,20,20,27,,,,,3,0,3,0,left,1.00880110593,NV,f,28,60.0022264139,Set,2017_12_15_2038,
"[3.0, 3.0]",4,0,20,20,27,,,,,4,0,4,0,left,0.408801421698,NV,f,28,60.0022264139,Set,2017_12_15_2038,
"[3.0, 3.0]",4,0,20,20,27,,,,,5,0,5,0,left,0.208782316331,NV,f,28,60.0022264139,Set,2017_12_15_2038,
"[3.0, 3.0]",4,0,20,20,27,,,,,6,0,6,0,left,0.225441101356,NV,f,28,60.0022264139,Set,2017_12_15_2038,
"[3.0, 3.0]",4,0,20,20,27,,,,,7,0,7,0,left,0.192119189131,NV,f,28,60.0022264139,Set,2017_12_15_2038,
"[3.0, 3.0]",4,0,20,20,27,,,,,8,0,8,0,left,0.242125544464,NV,f,28,60.0022264139,Set,2017_12_15_2038,
"[3.0, 3.0]",4,0,20,20,27,,,,,9,0,9,0,left,0.258774461021,NV,f,28,60.0022264139,Set,2017_12_15_2038,
"[3.0, 3.0]",4,0,20,20,27,,,,,10,0,10,0,left,0.492115478584,NV,f,28,60.0022264139,Set,2017_12_15_2038,
"[3.0, 3.0]",4,0,20,20,27,,,,,11,0,11,0,down,0.325460522523,NV,f,28,60.0022264139,Set,2017_12_15_2038,
"[3.0, 3.0]",4,0,20,20,27,,,,,12,0,12,0,down,0.625471812062,NV,f,28,60.0022264139,Set,2017_12_15_2038,
"[2.8, 2.8]",1,0,21,21,12,,,,,0,0,0,0,right,1.20884389564,NV,f,28,60.0022264139,Set,2017_12_15_2038,
"[2.8, 2.8]",1,0,21,21,12,,,,,1,0,1,0,left,0.492112715408,NV,f,28,60.0022264139,Set,2017_12_15_2038,
"[2.8, 2.8]",1,0,21,21,12,,,,,2,0,2,0,left,0.525463838334,NV,f,28,60.0022264139,Set,2017_12_15_2038,
"[2.8, 2.8]",1,0,21,21,12,,,,,3,0,3,0,right,0.258821829717,NV,f,28,60.0022264139,Set,2017_12_15_2038,
"[2.8, 2.8]",1,0,21,21,12,,,,,4,0,4,0,left,0.458791987417,NV,f,28,60.0022264139,Set,2017_12_15_2038,
"[2.8, 2.8]",1,0,21,21,12,,,,,5,0,5,0,down,0.37544398295,NV,f,28,60.0022264139,Set,2017_12_15_2038,
"[2.8, 2.8]",1,0,21,21,12,,,,,6,0,6,0,right,0.525451601425,NV,f,28,60.0022264139,Set,2017_12_15_2038,
"[2.8, 2.8]",1,0,21,21,12,,,,,7,0,7,0,right,0.692119583866,NV,f,28,60.0022264139,Set,2017_12_15_2038,
"[2.8, 2.8]",1,0,21,21,12,,,,,8,0,8,0,right,0.308775684709,NV,f,28,60.0022264139,Set,2017_12_15_2038,
"[2.8, 2.8]",1,0,21,21,12,,,,,9,0,9,0,right,0.192068267788,NV,f,28,60.0022264139,Set,2017_12_15_2038,
"[2.8, 2.8]",1,0,21,21,12,,,,,10,0,10,0,right,0.458777382068,NV,f,28,60.0022264139,Set,2017_12_15_2038,
"[2.8, 2.8]",1,0,21,21,12,,,,,11,0,11,0,right,0.33357833483,NV,f,28,60.0022264139,Set,2017_12_15_2038,
"[2.8, 2.8]",1,0,21,21,12,,,,,12,0,12,0,down,0.342130360252,NV,f,28,60.0022264139,Set,2017_12_15_2038,
"[2.8, 2.8]",1,0,21,21,12,,,,,13,0,13,0,left,0.492138768197,NV,f,28,60.0022264139,Set,2017_12_15_2038,
"[2.8, 2.8]",1,0,21,21,12,,,,,14,0,14,0,right,0.558781408414,NV,f,28,60.0022264139,Set,2017_12_15_2038,
"[2.8, 2.8]",1,0,21,21,12,,,,,15,0,15,0,right,0.475461825175,NV,f,28,60.0022264139,Set,2017_12_15_2038,
"[2.8, 2.8]",1,0,21,21,12,,,,,16,0,16,0,left,0.508854790445,NV,f,28,60.0022264139,Set,2017_12_15_2038,
"[2.8, 2.8]",1,0,21,21,12,,,,,17,0,17,0,left,0.275449825072,NV,f,28,60.0022264139,Set,2017_12_15_2038,
"[2.8, 2.8]",1,0,21,21,12,,,,,18,0,18,0,left,0.358826250769,NV,f,28,60.0022264139,Set,2017_12_15_2038,
"[2.8, 2.8]",1,0,21,21,12,,,,,19,0,19,0,left,0.77544666719,NV,f,28,60.0022264139,Set,2017_12_15_2038,
"[2.8, 2.8]",1,0,21,21,12,,,,,20,0,20,0,right,0.242196992243,NV,f,28,60.0022264139,Set,2017_12_15_2038,
"[2.8, 2.8]",1,0,21,21,12,,,,,21,0,21,0,right,0.258806434897,NV,f,28,60.0022264139,Set,2017_12_15_2038,
"[2.8, 2.8]",1,0,21,21,12,,,,,22,0,22,0,right,0.225453733001,NV,f,28,60.0022264139,Set,2017_12_15_2038,
"[2.8, 2.8]",1,0,21,21,12,,,,,23,0,23,0,right,0.342130360252,NV,f,28,60.0022264139,Set,2017_12_15_2038,
"[2.8, 2.8]",1,0,21,21,12,,,,,24,0,24,0,right,0.29211729439,NV,f,28,60.0022264139,Set,2017_12_15_2038,
"[2.8, 2.8]",1,0,21,21,12,,,,,25,0,25,0,right,0.342135886633,NV,f,28,60.0022264139,Set,2017_12_15_2038,
"[2.8, 2.8]",1,0,21,21,12,,,,,26,0,26,0,right,0.425425864407,NV,f,28,60.0022264139,Set,2017_12_15_2038,
"[2.8, 2.8]",1,0,21,21,12,,,,,27,0,27,0,right,0.442130439216,NV,f,28,60.0022264139,Set,2017_12_15_2038,
"[2.8, 2.8]",1,0,21,21,12,,,,,28,0,28,0,right,0.392141057673,NV,f,28,60.0022264139,Set,2017_12_15_2038,
"[2.8, 2.8]",1,0,21,21,12,,,,,29,0,29,0,right,0.275465614657,NV,f,28,60.0022264139,Set,2017_12_15_2038,
"[2.8, 2.8]",1,0,21,21,12,,,,,30,0,30,0,right,0.258748013468,NV,f,28,60.0022264139,Set,2017_12_15_2038,
"[2.8, 2.8]",1,0,21,21,12,,,,,31,0,31,0,right,0.325423811795,NV,f,28,60.0022264139,Set,2017_12_15_2038,
"[2.8, 2.8]",1,0,21,21,12,,,,,32,0,32,0,right,0.2421251497,NV,f,28,60.0022264139,Set,2017_12_15_2038,
"[2.8, 2.8]",1,0,21,21,12,,,,,33,0,33,0,right,0.708751921396,NV,f,28,60.0022264139,Set,2017_12_15_2038,
"[2.8, 2.8]",1,0,21,21,12,,,,,34,0,34,0,right,0.425451127754,NV,f,28,60.0022264139,Set,2017_12_15_2038,
"[2.8, 2.8]",1,0,21,21,12,,,,,35,0,35,0,right,0.242161465721,NV,f,28,60.0022264139,Set,2017_12_15_2038,
"[2.8, 2.8]",1,0,21,21,12,,,,,36,0,36,0,right,0.325489733223,NV,f,28,60.0022264139,Set,2017_12_15_2038,
"[2.8, 2.8]",1,0,21,21,12,,,,,37,0,37,0,right,0.542073675693,NV,f,28,60.0022264139,Set,2017_12_15_2038,
"[2.8, 2.8]",1,0,21,21,12,,,,,38,0,38,0,right,0.45878211892,NV,f,28,60.0022264139,Set,2017_12_15_2038,
"[2.8, 2.8]",1,0,21,21,12,,,,,39,0,39,0,down,0.442096491635,NV,f,28,60.0022264139,Set,2017_12_15_2038,
"[2.8, 2.8]",1,0,21,21,12,,,,,40,0,40,0,right,1.57540624586,NV,f,28,60.0022264139,Set,2017_12_15_2038,
"[2.8, 2.8]",1,0,21,21,12,,,,,41,0,41,0,down,0.358783224219,NV,f,28,60.0022264139,Set,2017_12_15_2038,
"[2.8, 2.8]",1,0,21,21,12,,,,,42,0,42,0,down,0.642102965357,NV,f,28,60.0022264139,Set,2017_12_15_2038,
"[2.9, 2.9]",4,0,22,22,21,,,,,0,0,0,0,down,0.392145005113,NV,f,28,60.0022264139,Set,2017_12_15_2038,
"[2.9, 2.9]",4,0,22,22,21,,,,,1,0,1,0,down,0.358786776866,NV,f,28,60.0022264139,Set,2017_12_15_2038,
"[2.9, 2.9]",2,0,23,23,19,,,,,0,0,0,0,down,0.375463719916,NV,f,28,60.0022264139,Set,2017_12_15_2038,
"[2.9, 2.9]",2,0,23,23,19,,,,,1,0,1,0,down,0.275422588107,NV,f,28,60.0022264139,Set,2017_12_15_2038,
"[2.7, 2.7]",2,0,24,24,7,,,,,0,0,0,0,down,0.342142202426,NV,f,28,60.0022264139,Set,2017_12_15_2038,
"[2.7, 2.7]",2,0,24,24,7,,,,,1,0,1,0,right,0.308816737583,NV,f,28,60.0022264139,Set,2017_12_15_2038,
"[2.7, 2.7]",2,0,24,24,7,,,,,2,0,2,0,down,0.358790724276,NV,f,28,60.0022264139,Set,2017_12_15_2038,
"[2.7, 2.7]",2,0,24,24,7,,,,,3,0,3,0,left,0.642166913109,NV,f,28,60.0022264139,Set,2017_12_15_2038,
"[2.7, 2.7]",2,0,24,24,7,,,,,4,0,4,0,left,0.475479193672,NV,f,28,60.0022264139,Set,2017_12_15_2038,
"[2.7, 2.7]",2,0,24,24,7,,,,,5,0,5,0,left,0.542145123502,NV,f,28,60.0022264139,Set,2017_12_15_2038,
"[2.7, 2.7]",2,0,24,24,7,,,,,6,0,6,0,left,0.542127755005,NV,f,28,60.0022264139,Set,2017_12_15_2038,
"[2.7, 2.7]",2,0,24,24,7,,,,,7,0,7,0,down,0.675446982961,NV,f,28,60.0022264139,Set,2017_12_15_2038,
"[2.7, 2.7]",2,0,24,24,7,,,,,8,0,8,0,down,0.375466088357,NV,f,28,60.0022264139,Set,2017_12_15_2038,
"[3.0, 3.0]",6,0,25,25,29,,,,,0,0,0,0,down,1.00023092245,NV,f,28,60.0022264139,Set,2017_12_15_2038,
"[3.0, 3.0]",6,0,25,25,29,,,,,1,0,1,0,down,0.492126531288,NV,f,28,60.0022264139,Set,2017_12_15_2038,
"[2.8, 2.8]",5,0,26,26,16,,,,,0,0,0,0,down,0.533554018883,NV,f,28,60.0022264139,Set,2017_12_15_2038,
"[2.8, 2.8]",5,0,26,26,16,,,,,1,0,1,0,down,0.408788000554,NV,f,28,60.0022264139,Set,2017_12_15_2038,
"[2.8, 2.8]",5,0,26,26,16,,,,,2,0,2,0,left,0.45880225065,NV,f,28,60.0022264139,Set,2017_12_15_2038,
"[2.8, 2.8]",5,0,26,26,16,,,,,3,0,3,0,left,0.342136676103,NV,f,28,60.0022264139,Set,2017_12_15_2038,
"[2.8, 2.8]",5,0,26,26,16,,,,,4,0,4,0,left,0.408806553314,NV,f,28,60.0022264139,Set,2017_12_15_2038,
"[2.8, 2.8]",5,0,26,26,16,,,,,5,0,5,0,right,0.775470351538,NV,f,28,60.0022264139,Set,2017_12_15_2038,
"[2.8, 2.8]",5,0,26,26,16,,,,,6,0,6,0,down,0.808780026826,NV,f,28,60.0022264139,Set,2017_12_15_2038,
"[2.8, 2.8]",5,0,26,26,16,,,,,7,0,7,0,left,0.375447930332,NV,f,28,60.0022264139,Set,2017_12_15_2038,
"[2.8, 2.8]",5,0,26,26,16,,,,,8,0,8,0,left,0.475454719854,NV,f,28,60.0022264139,Set,2017_12_15_2038,
"[2.8, 2.8]",5,0,26,26,16,,,,,9,0,9,0,left,0.508756500349,NV,f,28,60.0022264139,Set,2017_12_15_2038,
"[2.8, 2.8]",5,0,26,26,16,,,,,10,0,10,0,left,0.508790842665,NV,f,28,60.0022264139,Set,2017_12_15_2038,
"[2.8, 2.8]",5,0,26,26,16,,,,,11,0,11,0,left,0.492141531373,NV,f,28,60.0022264139,Set,2017_12_15_2038,
"[2.8, 2.8]",5,0,26,26,16,,,,,12,0,12,0,left,0.392229084566,NV,f,28,60.0022264139,Set,2017_12_15_2038,
"[2.8, 2.8]",5,0,26,26,16,,,,,13,0,13,0,down,0.392110662797,NV,f,28,60.0022264139,Set,2017_12_15_2038,
"[2.8, 2.8]",5,0,26,26,16,,,,,14,0,14,0,down,1.12528944254,NV,f,28,60.0022264139,Set,2017_12_15_2038,
"[2.8, 2.8]",5,0,26,26,16,,,,,15,0,15,0,left,0.77544271978,NV,f,28,60.0022264139,Set,2017_12_15_2038,
"[2.8, 2.8]",5,0,26,26,16,,,,,16,0,16,0,left,0.525472917332,NV,f,28,60.0022264139,Set,2017_12_15_2038,
"[2.8, 2.8]",5,0,26,26,16,,,,,17,0,17,0,left,0.425478759484,NV,f,28,60.0022264139,Set,2017_12_15_2038,
"[2.8, 2.8]",5,0,26,26,16,,,,,18,0,18,0,left,0.392154873582,NV,f,28,60.0022264139,Set,2017_12_15_2038,
"[2.8, 2.8]",5,0,26,26,16,,,,,19,0,19,0,left,0.375463325181,NV,f,28,60.0022264139,Set,2017_12_15_2038,
"[2.8, 2.8]",5,0,26,26,16,,,,,20,0,20,0,left,0.275434825016,NV,f,28,60.0022264139,Set,2017_12_15_2038,
"[2.8, 2.8]",5,0,26,26,16,,,,,21,0,21,0,down,0.475450772472,NV,f,28,60.0022264139,Set,2017_12_15_2038,
"[2.8, 2.8]",5,0,26,26,16,,,,,22,0,22,0,down,0.458773829421,NV,f,28,60.0022264139,Set,2017_12_15_2038,
"[2.6, 2.6]",1,0,27,27,0,,,,,0,0,0,0,right,5.63349843959,NV,f,28,60.0022264139,Set,2017_12_15_2038,
"[2.6, 2.6]",1,0,27,27,0,,,,,1,0,1,0,right,0.575470983109,NV,f,28,60.0022264139,Set,2017_12_15_2038,
"[2.6, 2.6]",1,0,27,27,0,,,,,2,0,2,0,left,0.408804184874,NV,f,28,60.0022264139,Set,2017_12_15_2038,
"[2.6, 2.6]",1,0,27,27,0,,,,,3,0,3,0,left,0.375456219859,NV,f,28,60.0022264139,Set,2017_12_15_2038,
"[2.6, 2.6]",1,0,27,27,0,,,,,4,0,4,0,left,0.233564834751,NV,f,28,60.0022264139,Set,2017_12_15_2038,
"[2.6, 2.6]",1,0,27,27,0,,,,,5,0,5,0,left,0.158779118938,NV,f,28,60.0022264139,Set,2017_12_15_2038,
"[2.6, 2.6]",1,0,27,27,0,,,,,6,0,6,0,left,0.175453693519,NV,f,28,60.0022264139,Set,2017_12_15_2038,
"[2.6, 2.6]",1,0,27,27,0,,,,,7,0,7,0,right,0.625458785682,NV,f,28,60.0022264139,Set,2017_12_15_2038,
"[2.6, 2.6]",1,0,27,27,0,,,,,8,0,8,0,left,0.375445167156,NV,f,28,60.0022264139,Set,2017_12_15_2038,
"[2.6, 2.6]",1,0,27,27,0,,,,,9,0,9,0,left,0.56695685265,NV,f,28,60.0022264139,Set,2017_12_15_2038,
"[2.6, 2.6]",1,0,27,27,0,,,,,10,0,10,0,right,0.308731473895,NV,f,28,60.0022264139,Set,2017_12_15_2038,
"[2.6, 2.6]",1,0,27,27,0,,,,,11,0,11,0,left,0.275544167787,NV,f,28,60.0022264139,Set,2017_12_15_2038,
"[2.6, 2.6]",1,0,27,27,0,,,,,12,0,12,0,left,0.392140662967,NV,f,28,60.0022264139,Set,2017_12_15_2038,
"[2.6, 2.6]",1,0,27,27,0,,,,,13,0,13,0,down,1.09211358384,NV,f,28,60.0022264139,Set,2017_12_15_2038,
"[2.6, 2.6]",1,0,27,27,0,,,,,14,0,14,0,down,0.458778961038,NV,f,28,60.0022264139,Set,2017_12_15_2038,
"[2.6, 2.6]",1,0,27,27,0,,,,,15,0,15,0,left,0.275454561954,NV,f,28,60.0022264139,Set,2017_12_15_2038,
"[2.6, 2.6]",1,0,27,27,0,,,,,16,0,16,0,left,0.458787250565,NV,f,28,60.0022264139,Set,2017_12_15_2038,
"[2.6, 2.6]",1,0,27,27,0,,,,,17,0,17,0,left,0.525468575215,NV,f,28,60.0022264139,Set,2017_12_15_2038,
"[2.6, 2.6]",1,0,27,27,0,,,,,18,0,18,0,left,0.27549206221,NV,f,28,60.0022264139,Set,2017_12_15_2038,
"[2.6, 2.6]",1,0,27,27,0,,,,,19,0,19,0,left,0.442123333894,NV,f,28,60.0022264139,Set,2017_12_15_2038,
"[2.6, 2.6]",1,0,27,27,0,,,,,20,0,20,0,left,0.425464548869,NV,f,28,60.0022264139,Set,2017_12_15_2038,
"[2.6, 2.6]",1,0,27,27,0,,,,,21,0,21,0,left,0.242105807469,NV,f,28,60.0022264139,Set,2017_12_15_2038,
"[2.6, 2.6]",1,0,27,27,0,,,,,22,0,22,0,down,0.625458785682,NV,f,28,60.0022264139,Set,2017_12_15_2038,
"[2.6, 2.6]",1,0,27,27,0,,,,,23,0,23,0,down,0.4754298513,NV,f,28,60.0022264139,Set,2017_12_15_2038,
"[2.9, 2.9]",1,0,28,28,18,,,,,0,0,0,0,down,1.17544224608,NV,f,28,60.0022264139,Set,2017_12_15_2038,
"[2.9, 2.9]",1,0,28,28,18,,,,,1,0,1,0,down,0.575464272551,NV,f,28,60.0022264139,Set,2017_12_15_2038,
"[2.9, 2.9]",1,0,28,28,18,,,,,2,0,2,0,right,0.508780974196,NV,f,28,60.0022264139,Set,2017_12_15_2038,
"[2.9, 2.9]",1,0,28,28,18,,,,,3,0,3,0,right,0.542130518181,NV,f,28,60.0022264139,Set,2017_12_15_2038,
"[2.9, 2.9]",1,0,28,28,18,,,,,4,0,4,0,right,0.29211966283,NV,f,28,60.0022264139,Set,2017_12_15_2038,
"[2.9, 2.9]",1,0,28,28,18,,,,,5,0,5,0,right,0.492134820815,NV,f,28,60.0022264139,Set,2017_12_15_2038,
"[2.9, 2.9]",1,0,28,28,18,,,,,6,0,6,0,right,0.342108254874,NV,f,28,60.0022264139,Set,2017_12_15_2038,
"[2.9, 2.9]",1,0,28,28,18,,,,,7,0,7,0,down,0.758773671521,NV,f,28,60.0022264139,Set,2017_12_15_2038,
"[2.9, 2.9]",1,0,28,28,18,,,,,8,0,8,0,down,0.492137583991,NV,f,28,60.0022264139,Set,2017_12_15_2038,
"[2.9, 2.9]",1,0,28,28,18,,,,,9,0,9,0,right,0.375439246069,NV,f,28,60.0022264139,Set,2017_12_15_2038,
"[2.9, 2.9]",1,0,28,28,18,,,,,10,0,10,0,right,0.208802448033,NV,f,28,60.0022264139,Set,2017_12_15_2038,
"[2.9, 2.9]",1,0,28,28,18,,,,,11,0,11,0,right,0.19213142604,NV,f,28,60.0022264139,Set,2017_12_15_2038,
"[2.9, 2.9]",1,0,28,28,18,,,,,12,0,12,0,right,0.275439167133,NV,f,28,60.0022264139,Set,2017_12_15_2038,
"[2.9, 2.9]",1,0,28,28,18,,,,,13,0,13,0,right,0.192120373336,NV,f,28,60.0022264139,Set,2017_12_15_2038,
"[2.9, 2.9]",1,0,28,28,18,,,,,14,0,14,0,right,0.458781329478,NV,f,28,60.0022264139,Set,2017_12_15_2038,
"[2.9, 2.9]",1,0,28,28,18,,,,,15,0,15,0,right,0.566906720749,NV,f,28,60.0022264139,Set,2017_12_15_2038,
"[2.9, 2.9]",1,0,28,28,18,,,,,16,0,16,0,down,0.642088754743,NV,f,28,60.0022264139,Set,2017_12_15_2038,
"[2.9, 2.9]",1,0,28,28,18,,,,,17,0,17,0,right,0.283562900528,NV,f,28,60.0022264139,Set,2017_12_15_2038,
"[2.9, 2.9]",1,0,28,28,18,,,,,18,0,18,0,down,0.642122702295,NV,f,28,60.0022264139,Set,2017_12_15_2038,
"[2.9, 2.9]",1,0,28,28,18,,,,,19,0,19,0,right,0.408767868852,NV,f,28,60.0022264139,Set,2017_12_15_2038,
"[2.9, 2.9]",1,0,28,28,18,,,,,20,0,20,0,down,4.14190796416,NV,f,28,60.0022264139,Set,2017_12_15_2038,
"[2.9, 2.9]",1,0,28,28,18,,,,,21,0,21,0,left,0.658775566291,NV,f,28,60.0022264139,Set,2017_12_15_2038,
"[2.9, 2.9]",1,0,28,28,18,,,,,22,0,22,0,left,0.5754579567,NV,f,28,60.0022264139,Set,2017_12_15_2038,
"[2.9, 2.9]",1,0,28,28,18,,,,,23,0,23,0,right,0.60879486904,NV,f,28,60.0022264139,Set,2017_12_15_2038,
"[2.9, 2.9]",1,0,28,28,18,,,,,24,0,24,0,left,0.392130794469,NV,f,28,60.0022264139,Set,2017_12_15_2038,
"[2.9, 2.9]",1,0,28,28,18,,,,,25,0,25,0,left,0.625447732949,NV,f,28,60.0022264139,Set,2017_12_15_2038,
"[2.9, 2.9]",1,0,28,28,18,,,,,26,0,26,0,left,1.09206424144,NV,f,28,60.0022264139,Set,2017_12_15_2038,
"[2.9, 2.9]",1,0,28,28,18,,,,,27,0,27,0,right,0.525443706632,NV,f,28,60.0022264139,Set,2017_12_15_2038,
"[2.9, 2.9]",1,0,28,28,18,,,,,28,0,28,0,left,0.458769882011,NV,f,28,60.0022264139,Set,2017_12_15_2038,
"[2.9, 2.9]",1,0,28,28,18,,,,,29,0,29,0,right,0.292114531214,NV,f,28,60.0022264139,Set,2017_12_15_2038,
"[2.9, 2.9]",1,0,28,28,18,,,,,30,0,30,0,right,0.325449864584,NV,f,28,60.0022264139,Set,2017_12_15_2038,
"[2.9, 2.9]",1,0,28,28,18,,,,,31,0,31,0,right,0.425460601458,NV,f,28,60.0022264139,Set,2017_12_15_2038,
"[2.9, 2.9]",1,0,28,28,18,,,,,32,0,32,0,right,0.558760881977,NV,f,28,60.0022264139,Set,2017_12_15_2038,
"[2.9, 2.9]",1,0,28,28,18,,,,,33,0,33,0,left,0.492109162762,NV,f,28,60.0022264139,Set,2017_12_15_2038,
"[2.9, 2.9]",1,0,28,28,18,,,,,34,0,34,0,right,0.458796329563,NV,f,28,60.0022264139,Set,2017_12_15_2038,
"[2.9, 2.9]",1,0,28,28,18,,,,,35,0,35,0,down,0.275457719865,NV,f,28,60.0022264139,Set,2017_12_15_2038,
"[2.9, 2.9]",1,0,28,28,18,,,,,36,0,36,0,left,0.592145952454,NV,f,28,60.0022264139,Set,2017_12_15_2038,
"[2.9, 2.9]",1,0,28,28,18,,,,,37,0,37,0,right,0.250237830391,NV,f,28,60.0022264139,Set,2017_12_15_2038,
"[2.9, 2.9]",1,0,28,28,18,,,,,38,0,38,0,left,0.442129254981,NV,f,28,60.0022264139,Set,2017_12_15_2038,
"[2.9, 2.9]",1,0,28,28,18,,,,,39,0,39,0,down,0.158751487179,NV,f,28,60.0022264139,Set,2017_12_15_2038,
"[2.9, 2.9]",1,0,28,28,18,,,,,40,0,40,0,left,0.358791908482,NV,f,28,60.0022264139,Set,2017_12_15_2038,
"[2.9, 2.9]",1,0,28,28,18,,,,,41,0,41,0,left,0.342134307662,NV,f,28,60.0022264139,Set,2017_12_15_2038,
"[2.9, 2.9]",1,0,28,28,18,,,,,42,0,42,0,left,0.275584036426,NV,f,28,60.0022264139,Set,2017_12_15_2038,
"[2.9, 2.9]",1,0,28,28,18,,,,,43,0,43,0,left,0.225459654117,NV,f,28,60.0022264139,Set,2017_12_15_2038,
"[2.9, 2.9]",1,0,28,28,18,,,,,44,0,44,0,left,0.275445877691,NV,f,28,60.0022264139,Set,2017_12_15_2038,
"[2.9, 2.9]",1,0,28,28,18,,,,,45,0,45,0,left,0.325308942673,NV,f,28,60.0022264139,Set,2017_12_15_2038,
"[2.9, 2.9]",1,0,28,28,18,,,,,46,0,46,0,left,0.225454522501,NV,f,28,60.0022264139,Set,2017_12_15_2038,
"[2.9, 2.9]",1,0,28,28,18,,,,,47,0,47,0,left,0.192113662808,NV,f,28,60.0022264139,Set,2017_12_15_2038,
"[2.9, 2.9]",1,0,28,28,18,,,,,48,0,48,0,left,0.142138097144,NV,f,28,60.0022264139,Set,2017_12_15_2038,
"[2.9, 2.9]",1,0,28,28,18,,,,,49,0,49,0,left,0.342126018135,NV,f,28,60.0022264139,Set,2017_12_15_2038,
"[2.9, 2.9]",1,0,28,28,18,,,,,50,0,50,0,down,0.458771066245,NV,f,28,60.0022264139,Set,2017_12_15_2038,
"[2.9, 2.9]",1,0,28,28,18,,,,,51,0,51,0,left,0.375455825124,NV,f,28,60.0022264139,Set,2017_12_15_2038,
"[2.9, 2.9]",1,0,28,28,18,,,,,52,0,52,0,left,0.208773632039,NV,f,28,60.0022264139,Set,2017_12_15_2038,
"[2.9, 2.9]",1,0,28,28,18,,,,,53,0,53,0,left,0.225454522501,NV,f,28,60.0022264139,Set,2017_12_15_2038,
"[2.9, 2.9]",1,0,28,28,18,,,,,54,0,54,0,left,0.358778487338,NV,f,28,60.0022264139,Set,2017_12_15_2038,
"[2.9, 2.9]",1,0,28,28,18,,,,,55,0,55,0,down,0.858781250543,NV,f,28,60.0022264139,Set,2017_12_15_2038,
"[2.9, 2.9]",1,0,28,28,18,,,,,56,0,56,0,down,3.40875050033,NV,f,28,60.0022264139,Set,2017_12_15_2038,
"[2.8, 2.8]",3,0,29,29,14,,,,,0,0,0,0,down,0.533563492616,NV,f,28,60.0022264139,Set,2017_12_15_2038,
"[2.8, 2.8]",3,0,29,29,14,,,,,1,0,1,0,down,0.525433838164,NV,f,28,60.0022264139,Set,2017_12_15_2038,
