size,n,trials_2.thisRepN,trials_2.thisTrialN,trials_2.thisN,trials_2.thisIndex,trials.thisRepN,trials.thisTrialN,trials.thisN,trials.thisIndex,trials_3.thisRepN,trials_3.thisTrialN,trials_3.thisN,trials_3.thisIndex,answer.keys,answer.rt,participant,gender,age,frameRate,expName,date,
"[2.8, 2.8]",6,0,0,0,17,,,,,0,0,0,0,left,13.592001478,UO,m,28,60.0126027146,Set,2017_12_20_1722,
"[2.8, 2.8]",6,0,0,0,17,,,,,1,0,1,0,down,4.67541461438,UO,m,28,60.0126027146,Set,2017_12_20_1722,
"[2.8, 2.8]",6,0,0,0,17,,,,,2,0,2,0,down,3.90878800058,UO,m,28,60.0126027146,Set,2017_12_20_1722,
"[2.8, 2.8]",1,0,1,1,12,,,,,0,0,0,0,left,0.975446430384,UO,m,28,60.0126027146,Set,2017_12_20_1722,
"[2.8, 2.8]",1,0,1,1,12,,,,,1,0,1,0,down,0.99211666279,UO,m,28,60.0126027146,Set,2017_12_20_1722,
"[2.8, 2.8]",1,0,1,1,12,,,,,2,0,2,0,down,0.658816619194,UO,m,28,60.0126027146,Set,2017_12_20_1722,
"[2.8, 2.8]",1,0,1,1,12,,,,,3,0,3,0,left,0.625454048743,UO,m,28,60.0126027146,Set,2017_12_20_1722,
"[2.8, 2.8]",1,0,1,1,12,,,,,4,0,4,0,down,0.658794118906,UO,m,28,60.0126027146,Set,2017_12_20_1722,
"[2.8, 2.8]",1,0,1,1,12,,,,,5,0,5,0,right,1.09212424187,UO,m,28,60.0126027146,Set,2017_12_20_1722,
"[2.8, 2.8]",1,0,1,1,12,,,,,6,0,6,0,left,0.658797671669,UO,m,28,60.0126027146,Set,2017_12_20_1722,
"[2.8, 2.8]",1,0,1,1,12,,,,,7,0,7,0,down,0.74211291282,UO,m,28,60.0126027146,Set,2017_12_20_1722,
"[2.8, 2.8]",1,0,1,1,12,,,,,8,0,8,0,left,0.742124754936,UO,m,28,60.0126027146,Set,2017_12_20_1722,
"[2.8, 2.8]",1,0,1,1,12,,,,,9,0,9,0,down,0.675452904077,UO,m,28,60.0126027146,Set,2017_12_20_1722,
"[2.8, 2.8]",1,0,1,1,12,,,,,10,0,10,0,down,0.458793961094,UO,m,28,60.0126027146,Set,2017_12_20_1722,
"[2.6, 2.6]",5,0,2,2,4,,,,,0,0,0,0,left,0.941958727664,UO,m,28,60.0126027146,Set,2017_12_20_1722,
"[2.6, 2.6]",5,0,2,2,4,,,,,1,0,1,0,left,0.558801145293,UO,m,28,60.0126027146,Set,2017_12_20_1722,
"[2.6, 2.6]",5,0,2,2,4,,,,,2,0,2,0,down,0.492123768083,UO,m,28,60.0126027146,Set,2017_12_20_1722,
"[2.6, 2.6]",5,0,2,2,4,,,,,3,0,3,0,down,0.358791908482,UO,m,28,60.0126027146,Set,2017_12_20_1722,
"[2.9, 2.9]",5,0,3,3,22,,,,,0,0,0,0,left,0.950183909037,UO,m,28,60.0126027146,Set,2017_12_20_1722,
"[2.9, 2.9]",5,0,3,3,22,,,,,1,0,1,0,down,0.675458825077,UO,m,28,60.0126027146,Set,2017_12_20_1722,
"[2.9, 2.9]",5,0,3,3,22,,,,,2,0,2,0,left,0.692124715541,UO,m,28,60.0126027146,Set,2017_12_20_1722,
"[2.9, 2.9]",5,0,3,3,22,,,,,3,0,3,0,left,0.558780618943,UO,m,28,60.0126027146,Set,2017_12_20_1722,
"[2.9, 2.9]",5,0,3,3,22,,,,,4,0,4,0,left,0.625469443621,UO,m,28,60.0126027146,Set,2017_12_20_1722,
"[2.9, 2.9]",5,0,3,3,22,,,,,5,0,5,0,left,0.825451443554,UO,m,28,60.0126027146,Set,2017_12_20_1722,
"[2.9, 2.9]",5,0,3,3,22,,,,,6,0,6,0,down,0.492169952602,UO,m,28,60.0126027146,Set,2017_12_20_1722,
"[2.9, 2.9]",5,0,3,3,22,,,,,7,0,7,0,down,0.49213363661,UO,m,28,60.0126027146,Set,2017_12_20_1722,
"[3.0, 3.0]",5,0,4,4,28,,,,,0,0,0,0,left,0.792158742086,UO,m,28,60.0126027146,Set,2017_12_20_1722,
"[3.0, 3.0]",5,0,4,4,28,,,,,1,0,1,0,left,0.516901944415,UO,m,28,60.0126027146,Set,2017_12_20_1722,
"[3.0, 3.0]",5,0,4,4,28,,,,,2,0,2,0,down,0.908756816178,UO,m,28,60.0126027146,Set,2017_12_20_1722,
"[3.0, 3.0]",5,0,4,4,28,,,,,3,0,3,0,left,0.475437351386,UO,m,28,60.0126027146,Set,2017_12_20_1722,
"[3.0, 3.0]",5,0,4,4,28,,,,,4,0,4,0,left,0.658794908435,UO,m,28,60.0126027146,Set,2017_12_20_1722,
"[3.0, 3.0]",5,0,4,4,28,,,,,5,0,5,0,down,1.50878018478,UO,m,28,60.0126027146,Set,2017_12_20_1722,
"[3.0, 3.0]",5,0,4,4,28,,,,,6,0,6,0,down,0.742151202518,UO,m,28,60.0126027146,Set,2017_12_20_1722,
"[3.0, 3.0]",5,0,4,4,28,,,,,7,0,7,0,left,0.458813698147,UO,m,28,60.0126027146,Set,2017_12_20_1722,
"[3.0, 3.0]",5,0,4,4,28,,,,,8,0,8,0,down,0.592129768105,UO,m,28,60.0126027146,Set,2017_12_20_1722,
"[3.0, 3.0]",5,0,4,4,28,,,,,9,0,9,0,down,0.442176228971,UO,m,28,60.0126027146,Set,2017_12_20_1722,
"[3.0, 3.0]",4,0,5,5,27,,,,,0,0,0,0,left,0.625466680387,UO,m,28,60.0126027146,Set,2017_12_20_1722,
"[3.0, 3.0]",4,0,5,5,27,,,,,1,0,1,0,down,0.708787842654,UO,m,28,60.0126027146,Set,2017_12_20_1722,
"[3.0, 3.0]",4,0,5,5,27,,,,,2,0,2,0,down,0.375434509246,UO,m,28,60.0126027146,Set,2017_12_20_1722,
"[2.8, 2.8]",2,0,6,6,13,,,,,0,0,0,0,left,0.542003412149,UO,m,28,60.0126027146,Set,2017_12_20_1722,
"[2.8, 2.8]",2,0,6,6,13,,,,,1,0,1,0,left,0.475449982914,UO,m,28,60.0126027146,Set,2017_12_20_1722,
"[2.8, 2.8]",2,0,6,6,13,,,,,2,0,2,0,down,0.342128386605,UO,m,28,60.0126027146,Set,2017_12_20_1722,
"[2.8, 2.8]",2,0,6,6,13,,,,,3,0,3,0,down,0.275451009278,UO,m,28,60.0126027146,Set,2017_12_20_1722,
"[2.7, 2.7]",1,0,7,7,6,,,,,0,0,0,0,left,0.550218724995,UO,m,28,60.0126027146,Set,2017_12_20_1722,
"[2.7, 2.7]",1,0,7,7,6,,,,,1,0,1,0,left,0.758806040161,UO,m,28,60.0126027146,Set,2017_12_20_1722,
"[2.7, 2.7]",1,0,7,7,6,,,,,2,0,2,0,down,0.575444930233,UO,m,28,60.0126027146,Set,2017_12_20_1722,
"[2.7, 2.7]",1,0,7,7,6,,,,,3,0,3,0,down,0.708789421595,UO,m,28,60.0126027146,Set,2017_12_20_1722,
"[2.7, 2.7]",1,0,7,7,6,,,,,4,0,4,0,left,0.442160834093,UO,m,28,60.0126027146,Set,2017_12_20_1722,
"[2.7, 2.7]",1,0,7,7,6,,,,,5,0,5,0,left,0.425468101515,UO,m,28,60.0126027146,Set,2017_12_20_1722,
"[2.7, 2.7]",1,0,7,7,6,,,,,6,0,6,0,down,0.442113465397,UO,m,28,60.0126027146,Set,2017_12_20_1722,
"[2.7, 2.7]",1,0,7,7,6,,,,,7,0,7,0,down,0.775556799374,UO,m,28,60.0126027146,Set,2017_12_20_1722,
"[2.6, 2.6]",3,0,8,8,2,,,,,0,0,0,0,left,0.692125505069,UO,m,28,60.0126027146,Set,2017_12_20_1722,
"[2.6, 2.6]",3,0,8,8,2,,,,,1,0,1,0,down,0.392116978532,UO,m,28,60.0126027146,Set,2017_12_20_1722,
"[2.6, 2.6]",3,0,8,8,2,,,,,2,0,2,0,down,0.392081057304,UO,m,28,60.0126027146,Set,2017_12_20_1722,
"[2.9, 2.9]",6,0,9,9,23,,,,,0,0,0,0,left,0.508723736973,UO,m,28,60.0126027146,Set,2017_12_20_1722,
"[2.9, 2.9]",6,0,9,9,23,,,,,1,0,1,0,down,0.5835544531,UO,m,28,60.0126027146,Set,2017_12_20_1722,
"[2.9, 2.9]",6,0,9,9,23,,,,,2,0,2,0,down,0.408811684931,UO,m,28,60.0126027146,Set,2017_12_20_1722,
"[2.9, 2.9]",2,0,10,10,19,,,,,0,0,0,0,left,0.658778724261,UO,m,28,60.0126027146,Set,2017_12_20_1722,
"[2.9, 2.9]",2,0,10,10,19,,,,,1,0,1,0,left,0.725446627708,UO,m,28,60.0126027146,Set,2017_12_20_1722,
"[2.9, 2.9]",2,0,10,10,19,,,,,2,0,2,0,left,0.50877505308,UO,m,28,60.0126027146,Set,2017_12_20_1722,
"[2.9, 2.9]",2,0,10,10,19,,,,,3,0,3,0,left,0.425448759343,UO,m,28,60.0126027146,Set,2017_12_20_1722,
"[2.9, 2.9]",2,0,10,10,19,,,,,4,0,4,0,left,0.742121991818,UO,m,28,60.0126027146,Set,2017_12_20_1722,
"[2.9, 2.9]",2,0,10,10,19,,,,,5,0,5,0,down,0.842116544372,UO,m,28,60.0126027146,Set,2017_12_20_1722,
"[2.9, 2.9]",2,0,10,10,19,,,,,6,0,6,0,down,0.608789737453,UO,m,28,60.0126027146,Set,2017_12_20_1722,
"[2.9, 2.9]",2,0,10,10,19,,,,,7,0,7,0,left,0.608803553274,UO,m,28,60.0126027146,Set,2017_12_20_1722,
"[2.9, 2.9]",2,0,10,10,19,,,,,8,0,8,0,down,0.608766053105,UO,m,28,60.0126027146,Set,2017_12_20_1722,
"[2.9, 2.9]",2,0,10,10,19,,,,,9,0,9,0,down,0.858808882302,UO,m,28,60.0126027146,Set,2017_12_20_1722,
"[2.9, 2.9]",2,0,10,10,19,,,,,10,0,10,0,left,0.625447732979,UO,m,28,60.0126027146,Set,2017_12_20_1722,
"[2.9, 2.9]",2,0,10,10,19,,,,,11,0,11,0,left,0.642115597031,UO,m,28,60.0126027146,Set,2017_12_20_1722,
"[2.9, 2.9]",2,0,10,10,19,,,,,12,0,12,0,left,0.558828382404,UO,m,28,60.0126027146,Set,2017_12_20_1722,
"[2.9, 2.9]",2,0,10,10,19,,,,,13,0,13,0,left,0.375457798829,UO,m,28,60.0126027146,Set,2017_12_20_1722,
"[2.9, 2.9]",2,0,10,10,19,,,,,14,0,14,0,down,0.758632749668,UO,m,28,60.0126027146,Set,2017_12_20_1722,
"[2.9, 2.9]",2,0,10,10,19,,,,,15,0,15,0,down,0.825441575027,UO,m,28,60.0126027146,Set,2017_12_20_1722,
"[2.6, 2.6]",6,0,11,11,5,,,,,0,0,0,0,left,0.733576282277,UO,m,28,60.0126027146,Set,2017_12_20_1722,
"[2.6, 2.6]",6,0,11,11,5,,,,,1,0,1,0,down,0.425471259397,UO,m,28,60.0126027146,Set,2017_12_20_1722,
"[2.6, 2.6]",6,0,11,11,5,,,,,2,0,2,0,down,0.392103952123,UO,m,28,60.0126027146,Set,2017_12_20_1722,
"[2.8, 2.8]",5,0,12,12,16,,,,,0,0,0,0,left,0.533585597994,UO,m,28,60.0126027146,Set,2017_12_20_1722,
"[2.8, 2.8]",5,0,12,12,16,,,,,1,0,1,0,down,0.508785711136,UO,m,28,60.0126027146,Set,2017_12_20_1722,
"[2.8, 2.8]",5,0,12,12,16,,,,,2,0,2,0,left,0.392130794469,UO,m,28,60.0126027146,Set,2017_12_20_1722,
"[2.8, 2.8]",5,0,12,12,16,,,,,3,0,3,0,left,0.592126215575,UO,m,28,60.0126027146,Set,2017_12_20_1722,
"[2.8, 2.8]",5,0,12,12,16,,,,,4,0,4,0,down,0.308815553319,UO,m,28,60.0126027146,Set,2017_12_20_1722,
"[2.8, 2.8]",5,0,12,12,16,,,,,5,0,5,0,down,0.342117333901,UO,m,28,60.0126027146,Set,2017_12_20_1722,
"[2.6, 2.6]",2,0,13,13,1,,,,,0,0,0,0,right,2.43351920287,UO,m,28,60.0126027146,Set,2017_12_20_1722,
"[2.6, 2.6]",2,0,13,13,1,,,,,1,0,1,0,left,0.475455904147,UO,m,28,60.0126027146,Set,2017_12_20_1722,
"[2.6, 2.6]",2,0,13,13,1,,,,,2,0,2,0,down,0.425457443576,UO,m,28,60.0126027146,Set,2017_12_20_1722,
"[2.6, 2.6]",2,0,13,13,1,,,,,3,0,3,0,down,0.392130794469,UO,m,28,60.0126027146,Set,2017_12_20_1722,
"[3.0, 3.0]",1,0,14,14,24,,,,,0,0,0,0,left,0.658770434675,UO,m,28,60.0126027146,Set,2017_12_20_1722,
"[3.0, 3.0]",1,0,14,14,24,,,,,1,0,1,0,left,0.525315811159,UO,m,28,60.0126027146,Set,2017_12_20_1722,
"[3.0, 3.0]",1,0,14,14,24,,,,,2,0,2,0,down,0.392130399705,UO,m,28,60.0126027146,Set,2017_12_20_1722,
"[3.0, 3.0]",1,0,14,14,24,,,,,3,0,3,0,down,0.508795184782,UO,m,28,60.0126027146,Set,2017_12_20_1722,
"[2.6, 2.6]",1,0,15,15,0,,,,,0,0,0,0,left,0.625456022448,UO,m,28,60.0126027146,Set,2017_12_20_1722,
"[2.6, 2.6]",1,0,15,15,0,,,,,1,0,1,0,down,0.508836632478,UO,m,28,60.0126027146,Set,2017_12_20_1722,
"[2.6, 2.6]",1,0,15,15,0,,,,,2,0,2,0,down,0.525456338306,UO,m,28,60.0126027146,Set,2017_12_20_1722,
"[2.6, 2.6]",1,0,15,15,0,,,,,3,0,3,0,left,0.392125268118,UO,m,28,60.0126027146,Set,2017_12_20_1722,
"[2.6, 2.6]",1,0,15,15,0,,,,,4,0,4,0,down,0.42546612781,UO,m,28,60.0126027146,Set,2017_12_20_1722,
"[2.6, 2.6]",1,0,15,15,0,,,,,5,0,5,0,left,0.342120491783,UO,m,28,60.0126027146,Set,2017_12_20_1722,
"[2.6, 2.6]",1,0,15,15,0,,,,,6,0,6,0,down,0.458800671622,UO,m,28,60.0126027146,Set,2017_12_20_1722,
"[2.6, 2.6]",1,0,15,15,0,,,,,7,0,7,0,down,0.308779237326,UO,m,28,60.0126027146,Set,2017_12_20_1722,
"[3.0, 3.0]",6,0,16,16,29,,,,,0,0,0,0,left,0.525470943656,UO,m,28,60.0126027146,Set,2017_12_20_1722,
"[3.0, 3.0]",6,0,16,16,29,,,,,1,0,1,0,left,0.325462496257,UO,m,28,60.0126027146,Set,2017_12_20_1722,
"[3.0, 3.0]",6,0,16,16,29,,,,,2,0,2,0,left,0.308807658614,UO,m,28,60.0126027146,Set,2017_12_20_1722,
"[3.0, 3.0]",6,0,16,16,29,,,,,3,0,3,0,left,0.358789934777,UO,m,28,60.0126027146,Set,2017_12_20_1722,
"[3.0, 3.0]",6,0,16,16,29,,,,,4,0,4,0,down,0.525466996245,UO,m,28,60.0126027146,Set,2017_12_20_1722,
"[3.0, 3.0]",6,0,16,16,29,,,,,5,0,5,0,left,0.34210943908,UO,m,28,60.0126027146,Set,2017_12_20_1722,
"[3.0, 3.0]",6,0,16,16,29,,,,,6,0,6,0,left,0.525435417076,UO,m,28,60.0126027146,Set,2017_12_20_1722,
"[3.0, 3.0]",6,0,16,16,29,,,,,7,0,7,0,down,0.675449351431,UO,m,28,60.0126027146,Set,2017_12_20_1722,
"[3.0, 3.0]",6,0,16,16,29,,,,,8,0,8,0,down,0.442156492034,UO,m,28,60.0126027146,Set,2017_12_20_1722,
"[2.7, 2.7]",2,0,17,17,7,,,,,0,0,0,0,left,0.516910628648,UO,m,28,60.0126027146,Set,2017_12_20_1722,
"[2.7, 2.7]",2,0,17,17,7,,,,,1,0,1,0,left,0.492108767969,UO,m,28,60.0126027146,Set,2017_12_20_1722,
"[2.7, 2.7]",2,0,17,17,7,,,,,2,0,2,0,left,0.308637525886,UO,m,28,60.0126027146,Set,2017_12_20_1722,
"[2.7, 2.7]",2,0,17,17,7,,,,,3,0,3,0,down,0.492118241731,UO,m,28,60.0126027146,Set,2017_12_20_1722,
"[2.7, 2.7]",2,0,17,17,7,,,,,4,0,4,0,down,0.358778882073,UO,m,28,60.0126027146,Set,2017_12_20_1722,
"[2.7, 2.7]",2,0,17,17,7,,,,,5,0,5,0,left,0.308797000558,UO,m,28,60.0126027146,Set,2017_12_20_1722,
"[2.7, 2.7]",2,0,17,17,7,,,,,6,0,6,0,left,0.40879313217,UO,m,28,60.0126027146,Set,2017_12_20_1722,
"[2.7, 2.7]",2,0,17,17,7,,,,,7,0,7,0,down,0.291947951308,UO,m,28,60.0126027146,Set,2017_12_20_1722,
"[2.7, 2.7]",2,0,17,17,7,,,,,8,0,8,0,down,0.492149426136,UO,m,28,60.0126027146,Set,2017_12_20_1722,
"[2.9, 2.9]",4,0,18,18,21,,,,,0,0,0,0,left,0.342256282107,UO,m,28,60.0126027146,Set,2017_12_20_1722,
"[2.9, 2.9]",4,0,18,18,21,,,,,1,0,1,0,left,0.325446706731,UO,m,28,60.0126027146,Set,2017_12_20_1722,
"[2.9, 2.9]",4,0,18,18,21,,,,,2,0,2,0,down,0.375505167525,UO,m,28,60.0126027146,Set,2017_12_20_1722,
"[2.9, 2.9]",4,0,18,18,21,,,,,3,0,3,0,down,0.458771460922,UO,m,28,60.0126027146,Set,2017_12_20_1722,
"[2.9, 2.9]",1,0,19,19,18,,,,,0,0,0,0,right,1.35879743483,UO,m,28,60.0126027146,Set,2017_12_20_1722,
"[2.9, 2.9]",1,0,19,19,18,,,,,1,0,1,0,left,0.792124794447,UO,m,28,60.0126027146,Set,2017_12_20_1722,
"[2.9, 2.9]",1,0,19,19,18,,,,,2,0,2,0,down,0.375489377999,UO,m,28,60.0126027146,Set,2017_12_20_1722,
"[2.9, 2.9]",1,0,19,19,18,,,,,3,0,3,0,down,0.392110662768,UO,m,28,60.0126027146,Set,2017_12_20_1722,
"[2.6, 2.6]",4,0,20,20,3,,,,,0,0,0,0,left,0.558797197999,UO,m,28,60.0126027146,Set,2017_12_20_1722,
"[2.6, 2.6]",4,0,20,20,3,,,,,1,0,1,0,down,0.442155702505,UO,m,28,60.0126027146,Set,2017_12_20_1722,
"[2.6, 2.6]",4,0,20,20,3,,,,,2,0,2,0,down,0.542163281469,UO,m,28,60.0126027146,Set,2017_12_20_1722,
"[2.7, 2.7]",6,0,21,21,11,,,,,0,0,0,0,left,0.300265896367,UO,m,28,60.0126027146,Set,2017_12_20_1722,
"[2.7, 2.7]",6,0,21,21,11,,,,,1,0,1,0,down,0.625475759502,UO,m,28,60.0126027146,Set,2017_12_20_1722,
"[2.7, 2.7]",6,0,21,21,11,,,,,2,0,2,0,down,0.34213036031,UO,m,28,60.0126027146,Set,2017_12_20_1722,
"[2.7, 2.7]",6,0,21,21,11,,,,,3,0,3,0,left,0.425458627753,UO,m,28,60.0126027146,Set,2017_12_20_1722,
"[2.7, 2.7]",6,0,21,21,11,,,,,4,0,4,0,down,0.342120886547,UO,m,28,60.0126027146,Set,2017_12_20_1722,
"[2.7, 2.7]",6,0,21,21,11,,,,,5,0,5,0,down,0.442142676096,UO,m,28,60.0126027146,Set,2017_12_20_1722,
"[2.7, 2.7]",4,0,22,22,9,,,,,0,0,0,0,down,0.483595427126,UO,m,28,60.0126027146,Set,2017_12_20_1722,
"[2.7, 2.7]",4,0,22,22,9,,,,,1,0,1,0,down,0.442124123336,UO,m,28,60.0126027146,Set,2017_12_20_1722,
"[2.8, 2.8]",4,0,23,23,15,,,,,0,0,0,0,left,0.383566926816,UO,m,28,60.0126027146,Set,2017_12_20_1722,
"[2.8, 2.8]",4,0,23,23,15,,,,,1,0,1,0,left,0.433584729675,UO,m,28,60.0126027146,Set,2017_12_20_1722,
"[2.8, 2.8]",4,0,23,23,15,,,,,2,0,2,0,down,0.325423811795,UO,m,28,60.0126027146,Set,2017_12_20_1722,
"[2.8, 2.8]",4,0,23,23,15,,,,,3,0,3,0,down,0.408808527049,UO,m,28,60.0126027146,Set,2017_12_20_1722,
"[3.0, 3.0]",2,0,24,24,25,,,,,0,0,0,0,right,0.842102728551,UO,m,28,60.0126027146,Set,2017_12_20_1722,
"[3.0, 3.0]",2,0,24,24,25,,,,,1,0,1,0,left,0.492122583906,UO,m,28,60.0126027146,Set,2017_12_20_1722,
"[3.0, 3.0]",2,0,24,24,25,,,,,2,0,2,0,down,0.342143386602,UO,m,28,60.0126027146,Set,2017_12_20_1722,
"[3.0, 3.0]",2,0,24,24,25,,,,,3,0,3,0,left,0.425460996223,UO,m,28,60.0126027146,Set,2017_12_20_1722,
"[3.0, 3.0]",2,0,24,24,25,,,,,4,0,4,0,left,0.442147412919,UO,m,28,60.0126027146,Set,2017_12_20_1722,
"[3.0, 3.0]",2,0,24,24,25,,,,,5,0,5,0,down,0.65877240838,UO,m,28,60.0126027146,Set,2017_12_20_1722,
"[3.0, 3.0]",2,0,24,24,25,,,,,6,0,6,0,left,0.400222553988,UO,m,28,60.0126027146,Set,2017_12_20_1722,
"[3.0, 3.0]",2,0,24,24,25,,,,,7,0,7,0,down,0.342109833728,UO,m,28,60.0126027146,Set,2017_12_20_1722,
"[3.0, 3.0]",2,0,24,24,25,,,,,8,0,8,0,down,0.492131662904,UO,m,28,60.0126027146,Set,2017_12_20_1722,
"[3.0, 3.0]",2,0,24,24,25,,,,,9,0,9,0,left,0.358785197954,UO,m,28,60.0126027146,Set,2017_12_20_1722,
"[3.0, 3.0]",2,0,24,24,25,,,,,10,0,10,0,left,0.542141570826,UO,m,28,60.0126027146,Set,2017_12_20_1722,
"[3.0, 3.0]",2,0,24,24,25,,,,,11,0,11,0,left,0.375484641059,UO,m,28,60.0126027146,Set,2017_12_20_1722,
"[3.0, 3.0]",2,0,24,24,25,,,,,12,0,12,0,left,0.49199587258,UO,m,28,60.0126027146,Set,2017_12_20_1722,
"[3.0, 3.0]",2,0,24,24,25,,,,,13,0,13,0,down,0.392107504886,UO,m,28,60.0126027146,Set,2017_12_20_1722,
"[3.0, 3.0]",2,0,24,24,25,,,,,14,0,14,0,left,0.408796290052,UO,m,28,60.0126027146,Set,2017_12_20_1722,
"[3.0, 3.0]",2,0,24,24,25,,,,,15,0,15,0,down,0.408789974172,UO,m,28,60.0126027146,Set,2017_12_20_1722,
"[3.0, 3.0]",2,0,24,24,25,,,,,16,0,16,0,down,0.39210789965,UO,m,28,60.0126027146,Set,2017_12_20_1722,
"[2.8, 2.8]",3,0,25,25,14,,,,,0,0,0,0,left,0.441991096246,UO,m,28,60.0126027146,Set,2017_12_20_1722,
"[2.8, 2.8]",3,0,25,25,14,,,,,1,0,1,0,left,0.592095820582,UO,m,28,60.0126027146,Set,2017_12_20_1722,
"[2.8, 2.8]",3,0,25,25,14,,,,,2,0,2,0,down,0.392125662882,UO,m,28,60.0126027146,Set,2017_12_20_1722,
"[2.8, 2.8]",3,0,25,25,14,,,,,3,0,3,0,left,0.408801026875,UO,m,28,60.0126027146,Set,2017_12_20_1722,
"[2.8, 2.8]",3,0,25,25,14,,,,,4,0,4,0,down,0.442107149633,UO,m,28,60.0126027146,Set,2017_12_20_1722,
"[2.8, 2.8]",3,0,25,25,14,,,,,5,0,5,0,down,0.458797118976,UO,m,28,60.0126027146,Set,2017_12_20_1722,
"[2.7, 2.7]",3,0,26,26,8,,,,,0,0,0,0,left,0.425467706751,UO,m,28,60.0126027146,Set,2017_12_20_1722,
"[2.7, 2.7]",3,0,26,26,8,,,,,1,0,1,0,down,0.458743039751,UO,m,28,60.0126027146,Set,2017_12_20_1722,
"[2.7, 2.7]",3,0,26,26,8,,,,,2,0,2,0,left,0.52545278566,UO,m,28,60.0126027146,Set,2017_12_20_1722,
"[2.7, 2.7]",3,0,26,26,8,,,,,3,0,3,0,down,0.392131978762,UO,m,28,60.0126027146,Set,2017_12_20_1722,
"[2.7, 2.7]",3,0,26,26,8,,,,,4,0,4,0,down,0.475463404204,UO,m,28,60.0126027146,Set,2017_12_20_1722,
"[2.9, 2.9]",3,0,27,27,20,,,,,0,0,0,0,left,0.542128939182,UO,m,28,60.0126027146,Set,2017_12_20_1722,
"[2.9, 2.9]",3,0,27,27,20,,,,,1,0,1,0,down,0.408772605704,UO,m,28,60.0126027146,Set,2017_12_20_1722,
"[2.9, 2.9]",3,0,27,27,20,,,,,2,0,2,0,down,0.6754809306,UO,m,28,60.0126027146,Set,2017_12_20_1722,
"[3.0, 3.0]",3,0,28,28,26,,,,,0,0,0,0,left,0.442115439218,UO,m,28,60.0126027146,Set,2017_12_20_1722,
"[3.0, 3.0]",3,0,28,28,26,,,,,1,0,1,0,left,0.425474022632,UO,m,28,60.0126027146,Set,2017_12_20_1722,
"[3.0, 3.0]",3,0,28,28,26,,,,,2,0,2,0,down,0.39213474188,UO,m,28,60.0126027146,Set,2017_12_20_1722,
"[3.0, 3.0]",3,0,28,28,26,,,,,3,0,3,0,down,0.50879834278,UO,m,28,60.0126027146,Set,2017_12_20_1722,
"[2.7, 2.7]",5,0,29,29,10,,,,,0,0,0,0,left,0.558788513765,UO,m,28,60.0126027146,Set,2017_12_20_1722,
"[2.7, 2.7]",5,0,29,29,10,,,,,1,0,1,0,down,0.492134820786,UO,m,28,60.0126027146,Set,2017_12_20_1722,
"[2.7, 2.7]",5,0,29,29,10,,,,,2,0,2,0,down,0.458783697919,UO,m,28,60.0126027146,Set,2017_12_20_1722,
