size,n,trials_2.thisRepN,trials_2.thisTrialN,trials_2.thisN,trials_2.thisIndex,trials.thisRepN,trials.thisTrialN,trials.thisN,trials.thisIndex,trials_3.thisRepN,trials_3.thisTrialN,trials_3.thisN,trials_3.thisIndex,answer.keys,answer.rt,participant,gender,age,frameRate,expName,date,
"[2.6, 2.6]",3,0,0,0,2,,,,,0,0,0,0,down,2.35879664542,ZEV,m,23,59.9962581048,Set,2017_12_20_2012,
"[2.6, 2.6]",3,0,0,0,2,,,,,1,0,1,0,down,1.60876171093,ZEV,m,23,59.9962581048,Set,2017_12_20_2012,
"[2.9, 2.9]",5,0,1,1,22,,,,,0,0,0,0,down,0.708802448004,ZEV,m,23,59.9962581048,Set,2017_12_20_2012,
"[2.9, 2.9]",5,0,1,1,22,,,,,1,0,1,0,down,0.708781921538,ZEV,m,23,59.9962581048,Set,2017_12_20_2012,
"[2.7, 2.7]",2,0,2,2,7,,,,,0,0,0,0,down,0.525511996471,ZEV,m,23,59.9962581048,Set,2017_12_20_2012,
"[2.7, 2.7]",2,0,2,2,7,,,,,1,0,1,0,down,0.475476035848,ZEV,m,23,59.9962581048,Set,2017_12_20_2012,
"[2.6, 2.6]",5,0,3,3,4,,,,,0,0,0,0,down,0.675448167254,ZEV,m,23,59.9962581048,Set,2017_12_20_2012,
"[2.6, 2.6]",5,0,3,3,4,,,,,1,0,1,0,down,0.542123018065,ZEV,m,23,59.9962581048,Set,2017_12_20_2012,
"[2.7, 2.7]",6,0,4,4,11,,,,,0,0,0,0,down,1.51693944458,ZEV,m,23,59.9962581048,Set,2017_12_20_2012,
"[2.7, 2.7]",6,0,4,4,11,,,,,1,0,1,0,down,0.558802329586,ZEV,m,23,59.9962581048,Set,2017_12_20_2012,
"[2.7, 2.7]",5,0,5,5,10,,,,,0,0,0,0,down,1.3254672332,ZEV,m,23,59.9962581048,Set,2017_12_20_2012,
"[2.7, 2.7]",5,0,5,5,10,,,,,1,0,1,0,down,2.4921024522,ZEV,m,23,59.9962581048,Set,2017_12_20_2012,
"[2.8, 2.8]",4,0,6,6,15,,,,,0,0,0,0,down,1.89211697865,ZEV,m,23,59.9962581048,Set,2017_12_20_2012,
"[2.8, 2.8]",4,0,6,6,15,,,,,1,0,1,0,down,0.57546703564,ZEV,m,23,59.9962581048,Set,2017_12_20_2012,
"[3.0, 3.0]",1,0,7,7,24,,,,,0,0,0,0,down,0.758783145342,ZEV,m,23,59.9962581048,Set,2017_12_20_2012,
"[3.0, 3.0]",1,0,7,7,24,,,,,1,0,1,0,down,0.642127439147,ZEV,m,23,59.9962581048,Set,2017_12_20_2012,
"[3.0, 3.0]",5,0,8,8,28,,,,,0,0,0,0,down,0.966894799611,ZEV,m,23,59.9962581048,Set,2017_12_20_2012,
"[3.0, 3.0]",5,0,8,8,28,,,,,1,0,1,0,down,0.608799605863,ZEV,m,23,59.9962581048,Set,2017_12_20_2012,
"[2.8, 2.8]",1,0,9,9,12,,,,,0,0,0,0,down,0.975472088438,ZEV,m,23,59.9962581048,Set,2017_12_20_2012,
"[2.8, 2.8]",1,0,9,9,12,,,,,1,0,1,0,down,1.89203526767,ZEV,m,23,59.9962581048,Set,2017_12_20_2012,
"[3.0, 3.0]",3,0,10,10,26,,,,,0,0,0,0,left,0.708776000538,ZEV,m,23,59.9962581048,Set,2017_12_20_2012,
"[3.0, 3.0]",3,0,10,10,26,,,,,1,0,1,0,down,0.675466719898,ZEV,m,23,59.9962581048,Set,2017_12_20_2012,
"[3.0, 3.0]",3,0,10,10,26,,,,,2,0,2,0,down,0.592117531342,ZEV,m,23,59.9962581048,Set,2017_12_20_2012,
"[2.9, 2.9]",1,0,11,11,18,,,,,0,0,0,0,down,0.592127794516,ZEV,m,23,59.9962581048,Set,2017_12_20_2012,
"[2.9, 2.9]",1,0,11,11,18,,,,,1,0,1,0,down,0.575444140937,ZEV,m,23,59.9962581048,Set,2017_12_20_2012,
"[2.9, 2.9]",4,0,12,12,21,,,,,0,0,0,0,down,0.658680039458,ZEV,m,23,59.9962581048,Set,2017_12_20_2012,
"[2.9, 2.9]",4,0,12,12,21,,,,,1,0,1,0,down,0.375456614653,ZEV,m,23,59.9962581048,Set,2017_12_20_2012,
"[3.0, 3.0]",6,0,13,13,29,,,,,0,0,0,0,down,0.575463088346,ZEV,m,23,59.9962581048,Set,2017_12_20_2012,
"[3.0, 3.0]",6,0,13,13,29,,,,,1,0,1,0,down,0.292117689154,ZEV,m,23,59.9962581048,Set,2017_12_20_2012,
"[2.6, 2.6]",6,0,14,14,5,,,,,0,0,0,0,down,0.916896733805,ZEV,m,23,59.9962581048,Set,2017_12_20_2012,
"[2.6, 2.6]",6,0,14,14,5,,,,,1,0,1,0,down,0.375495693763,ZEV,m,23,59.9962581048,Set,2017_12_20_2012,
"[2.8, 2.8]",5,0,15,15,16,,,,,0,0,0,0,left,0.675455272431,ZEV,m,23,59.9962581048,Set,2017_12_20_2012,
"[2.8, 2.8]",5,0,15,15,16,,,,,1,0,1,0,down,0.425460996223,ZEV,m,23,59.9962581048,Set,2017_12_20_2012,
"[2.8, 2.8]",5,0,15,15,16,,,,,2,0,2,0,down,0.408778132056,ZEV,m,23,59.9962581048,Set,2017_12_20_2012,
"[2.9, 2.9]",6,0,16,16,23,,,,,0,0,0,0,down,0.516926418175,ZEV,m,23,59.9962581048,Set,2017_12_20_2012,
"[2.9, 2.9]",6,0,16,16,23,,,,,1,0,1,0,down,0.342135097133,ZEV,m,23,59.9962581048,Set,2017_12_20_2012,
"[2.7, 2.7]",1,0,17,17,6,,,,,0,0,0,0,down,0.508780184784,ZEV,m,23,59.9962581048,Set,2017_12_20_2012,
"[2.7, 2.7]",1,0,17,17,6,,,,,1,0,1,0,down,0.258804066456,ZEV,m,23,59.9962581048,Set,2017_12_20_2012,
"[2.7, 2.7]",4,0,18,18,9,,,,,0,0,0,0,down,0.400239133043,ZEV,m,23,59.9962581048,Set,2017_12_20_2012,
"[2.7, 2.7]",4,0,18,18,9,,,,,1,0,1,0,down,0.242118439055,ZEV,m,23,59.9962581048,Set,2017_12_20_2012,
"[3.0, 3.0]",2,0,19,19,25,,,,,0,0,0,0,left,0.642125070677,ZEV,m,23,59.9962581048,Set,2017_12_20_2012,
"[3.0, 3.0]",2,0,19,19,25,,,,,1,0,1,0,down,0.342098781141,ZEV,m,23,59.9962581048,Set,2017_12_20_2012,
"[3.0, 3.0]",2,0,19,19,25,,,,,2,0,2,0,down,0.208802053239,ZEV,m,23,59.9962581048,Set,2017_12_20_2012,
"[3.0, 3.0]",4,0,20,20,27,,,,,0,0,0,0,down,0.258808408631,ZEV,m,23,59.9962581048,Set,2017_12_20_2012,
"[3.0, 3.0]",4,0,20,20,27,,,,,1,0,1,0,down,0.358760329313,ZEV,m,23,59.9962581048,Set,2017_12_20_2012,
"[2.6, 2.6]",1,0,21,21,0,,,,,0,0,0,0,down,0.483583190129,ZEV,m,23,59.9962581048,Set,2017_12_20_2012,
"[2.6, 2.6]",1,0,21,21,0,,,,,1,0,1,0,down,1.10891052766,ZEV,m,23,59.9962581048,Set,2017_12_20_2012,
"[2.8, 2.8]",6,0,22,22,17,,,,,0,0,0,0,left,0.542134860298,ZEV,m,23,59.9962581048,Set,2017_12_20_2012,
"[2.8, 2.8]",6,0,22,22,17,,,,,1,0,1,0,down,0.425443627639,ZEV,m,23,59.9962581048,Set,2017_12_20_2012,
"[2.8, 2.8]",6,0,22,22,17,,,,,2,0,2,0,down,0.392134347116,ZEV,m,23,59.9962581048,Set,2017_12_20_2012,
"[2.8, 2.8]",6,0,22,22,17,,,,,3,0,3,0,left,0.542110781185,ZEV,m,23,59.9962581048,Set,2017_12_20_2012,
"[2.8, 2.8]",6,0,22,22,17,,,,,4,0,4,0,down,0.642129807617,ZEV,m,23,59.9962581048,Set,2017_12_20_2012,
"[2.8, 2.8]",6,0,22,22,17,,,,,5,0,5,0,down,0.375472404179,ZEV,m,23,59.9962581048,Set,2017_12_20_2012,
"[2.8, 2.8]",6,0,22,22,17,,,,,6,0,6,0,left,0.608797632158,ZEV,m,23,59.9962581048,Set,2017_12_20_2012,
"[2.8, 2.8]",6,0,22,22,17,,,,,7,0,7,0,down,0.458740276517,ZEV,m,23,59.9962581048,Set,2017_12_20_2012,
"[2.8, 2.8]",6,0,22,22,17,,,,,8,0,8,0,left,0.74218751851,ZEV,m,23,59.9962581048,Set,2017_12_20_2012,
"[2.8, 2.8]",6,0,22,22,17,,,,,9,0,9,0,down,0.475463404087,ZEV,m,23,59.9962581048,Set,2017_12_20_2012,
"[2.8, 2.8]",6,0,22,22,17,,,,,10,0,10,0,down,0.52546265407,ZEV,m,23,59.9962581048,Set,2017_12_20_2012,
"[2.8, 2.8]",6,0,22,22,17,,,,,11,0,11,0,left,0.658808329608,ZEV,m,23,59.9962581048,Set,2017_12_20_2012,
"[2.8, 2.8]",6,0,22,22,17,,,,,12,0,12,0,down,0.492162452545,ZEV,m,23,59.9962581048,Set,2017_12_20_2012,
"[2.8, 2.8]",6,0,22,22,17,,,,,13,0,13,0,down,0.492129689199,ZEV,m,23,59.9962581048,Set,2017_12_20_2012,
"[2.6, 2.6]",4,0,23,23,3,,,,,0,0,0,0,left,0.408804184874,ZEV,m,23,59.9962581048,Set,2017_12_20_2012,
"[2.6, 2.6]",4,0,23,23,3,,,,,1,0,1,0,left,0.525436601369,ZEV,m,23,59.9962581048,Set,2017_12_20_2012,
"[2.6, 2.6]",4,0,23,23,3,,,,,2,0,2,0,left,0.475501299021,ZEV,m,23,59.9962581048,Set,2017_12_20_2012,
"[2.6, 2.6]",4,0,23,23,3,,,,,3,0,3,0,down,0.225522417692,ZEV,m,23,59.9962581048,Set,2017_12_20_2012,
"[2.6, 2.6]",4,0,23,23,3,,,,,4,0,4,0,left,0.258814724395,ZEV,m,23,59.9962581048,Set,2017_12_20_2012,
"[2.6, 2.6]",4,0,23,23,3,,,,,5,0,5,0,down,0.492124162847,ZEV,m,23,59.9962581048,Set,2017_12_20_2012,
"[2.6, 2.6]",4,0,23,23,3,,,,,6,0,6,0,left,0.525479233125,ZEV,m,23,59.9962581048,Set,2017_12_20_2012,
"[2.6, 2.6]",4,0,23,23,3,,,,,7,0,7,0,left,0.425448759226,ZEV,m,23,59.9962581048,Set,2017_12_20_2012,
"[2.6, 2.6]",4,0,23,23,3,,,,,8,0,8,0,left,0.675431193435,ZEV,m,23,59.9962581048,Set,2017_12_20_2012,
"[2.6, 2.6]",4,0,23,23,3,,,,,9,0,9,0,left,0.642111254856,ZEV,m,23,59.9962581048,Set,2017_12_20_2012,
"[2.6, 2.6]",4,0,23,23,3,,,,,10,0,10,0,left,0.475456693559,ZEV,m,23,59.9962581048,Set,2017_12_20_2012,
"[2.6, 2.6]",4,0,23,23,3,,,,,11,0,11,0,left,0.375461746124,ZEV,m,23,59.9962581048,Set,2017_12_20_2012,
"[2.6, 2.6]",4,0,23,23,3,,,,,12,0,12,0,left,0.342112202197,ZEV,m,23,59.9962581048,Set,2017_12_20_2012,
"[2.6, 2.6]",4,0,23,23,3,,,,,13,0,13,0,right,0.825437627733,ZEV,m,23,59.9962581048,Set,2017_12_20_2012,
"[2.6, 2.6]",4,0,23,23,3,,,,,14,0,14,0,left,0.358772960957,ZEV,m,23,59.9962581048,Set,2017_12_20_2012,
"[2.6, 2.6]",4,0,23,23,3,,,,,15,0,15,0,left,0.508617157466,ZEV,m,23,59.9962581048,Set,2017_12_20_2012,
"[2.6, 2.6]",4,0,23,23,3,,,,,16,0,16,0,left,0.542112754891,ZEV,m,23,59.9962581048,Set,2017_12_20_2012,
"[2.6, 2.6]",4,0,23,23,3,,,,,17,0,17,0,left,0.59213884722,ZEV,m,23,59.9962581048,Set,2017_12_20_2012,
"[2.6, 2.6]",4,0,23,23,3,,,,,18,0,18,0,left,0.60877394781,ZEV,m,23,59.9962581048,Set,2017_12_20_2012,
"[2.6, 2.6]",4,0,23,23,3,,,,,19,0,19,0,down,0.558778250474,ZEV,m,23,59.9962581048,Set,2017_12_20_2012,
"[2.6, 2.6]",4,0,23,23,3,,,,,20,0,20,0,left,0.492152978783,ZEV,m,23,59.9962581048,Set,2017_12_20_2012,
"[2.6, 2.6]",4,0,23,23,3,,,,,21,0,21,0,left,0.625486022676,ZEV,m,23,59.9962581048,Set,2017_12_20_2012,
"[2.6, 2.6]",4,0,23,23,3,,,,,22,0,22,0,left,0.558812198113,ZEV,m,23,59.9962581048,Set,2017_12_20_2012,
"[2.6, 2.6]",4,0,23,23,3,,,,,23,0,23,0,left,0.658820566605,ZEV,m,23,59.9962581048,Set,2017_12_20_2012,
"[2.6, 2.6]",4,0,23,23,3,,,,,24,0,24,0,down,0.717071445426,ZEV,m,23,59.9962581048,Set,2017_12_20_2012,
"[2.6, 2.6]",4,0,23,23,3,,,,,25,0,25,0,left,0.508765184553,ZEV,m,23,59.9962581048,Set,2017_12_20_2012,
"[2.6, 2.6]",4,0,23,23,3,,,,,26,0,26,0,left,0.592155426275,ZEV,m,23,59.9962581048,Set,2017_12_20_2012,
"[2.6, 2.6]",4,0,23,23,3,,,,,27,0,27,0,down,0.492122583906,ZEV,m,23,59.9962581048,Set,2017_12_20_2012,
"[2.6, 2.6]",4,0,23,23,3,,,,,28,0,28,0,left,0.592116741696,ZEV,m,23,59.9962581048,Set,2017_12_20_2012,
"[2.6, 2.6]",4,0,23,23,3,,,,,29,0,29,0,right,0.775473904097,ZEV,m,23,59.9962581048,Set,2017_12_20_2012,
"[2.6, 2.6]",4,0,23,23,3,,,,,30,0,30,0,left,0.425464154105,ZEV,m,23,59.9962581048,Set,2017_12_20_2012,
"[2.6, 2.6]",4,0,23,23,3,,,,,31,0,31,0,down,0.642119149677,ZEV,m,23,59.9962581048,Set,2017_12_20_2012,
"[2.6, 2.6]",4,0,23,23,3,,,,,32,0,32,0,down,0.325458154082,ZEV,m,23,59.9962581048,Set,2017_12_20_2012,
"[2.6, 2.6]",4,0,23,23,3,,,,,33,0,33,0,left,0.52547133842,ZEV,m,23,59.9962581048,Set,2017_12_20_2012,
"[2.6, 2.6]",4,0,23,23,3,,,,,34,0,34,0,down,0.458781329449,ZEV,m,23,59.9962581048,Set,2017_12_20_2012,
"[2.6, 2.6]",4,0,23,23,3,,,,,35,0,35,0,left,0.725449390942,ZEV,m,23,59.9962581048,Set,2017_12_20_2012,
"[2.6, 2.6]",4,0,23,23,3,,,,,36,0,36,0,left,0.558842592989,ZEV,m,23,59.9962581048,Set,2017_12_20_2012,
"[2.6, 2.6]",4,0,23,23,3,,,,,37,0,37,0,left,0.392124083824,ZEV,m,23,59.9962581048,Set,2017_12_20_2012,
"[2.6, 2.6]",4,0,23,23,3,,,,,38,0,38,0,left,0.225540970336,ZEV,m,23,59.9962581048,Set,2017_12_20_2012,
"[2.6, 2.6]",4,0,23,23,3,,,,,39,0,39,0,left,0.208810342825,ZEV,m,23,59.9962581048,Set,2017_12_20_2012,
"[2.6, 2.6]",4,0,23,23,3,,,,,40,0,40,0,left,0.258793803281,ZEV,m,23,59.9962581048,Set,2017_12_20_2012,
"[2.6, 2.6]",4,0,23,23,3,,,,,41,0,41,0,left,0.208779947832,ZEV,m,23,59.9962581048,Set,2017_12_20_2012,
"[2.6, 2.6]",4,0,23,23,3,,,,,42,0,42,0,left,0.342143781367,ZEV,m,23,59.9962581048,Set,2017_12_20_2012,
"[2.6, 2.6]",4,0,23,23,3,,,,,43,0,43,0,left,0.192115636542,ZEV,m,23,59.9962581048,Set,2017_12_20_2012,
"[2.6, 2.6]",4,0,23,23,3,,,,,44,0,44,0,left,0.0921159522841,ZEV,m,23,59.9962581048,Set,2017_12_20_2012,
"[2.6, 2.6]",4,0,23,23,3,,,,,45,0,45,0,left,0.208800869063,ZEV,m,23,59.9962581048,Set,2017_12_20_2012,
"[2.6, 2.6]",4,0,23,23,3,,,,,46,0,46,0,left,0.158786618966,ZEV,m,23,59.9962581048,Set,2017_12_20_2012,
"[2.6, 2.6]",4,0,23,23,3,,,,,47,0,47,0,left,0.392146584112,ZEV,m,23,59.9962581048,Set,2017_12_20_2012,
"[2.6, 2.6]",4,0,23,23,3,,,,,48,0,48,0,left,0.425431390759,ZEV,m,23,59.9962581048,Set,2017_12_20_2012,
"[2.6, 2.6]",4,0,23,23,3,,,,,49,0,49,0,left,1.47544169344,ZEV,m,23,59.9962581048,Set,2017_12_20_2012,
"[2.6, 2.6]",4,0,23,23,3,,,,,50,0,50,0,left,0.692122347071,ZEV,m,23,59.9962581048,Set,2017_12_20_2012,
"[2.6, 2.6]",4,0,23,23,3,,,,,51,0,51,0,right,0.592106478522,ZEV,m,23,59.9962581048,Set,2017_12_20_2012,
"[2.6, 2.6]",4,0,23,23,3,,,,,52,0,52,0,left,0.2921271628,ZEV,m,23,59.9962581048,Set,2017_12_20_2012,
"[2.6, 2.6]",4,0,23,23,3,,,,,53,0,53,0,left,0.342101939023,ZEV,m,23,59.9962581048,Set,2017_12_20_2012,
"[2.6, 2.6]",4,0,23,23,3,,,,,54,0,54,0,left,0.558790092589,ZEV,m,23,59.9962581048,Set,2017_12_20_2012,
"[2.6, 2.6]",4,0,23,23,3,,,,,55,0,55,0,left,0.608783421572,ZEV,m,23,59.9962581048,Set,2017_12_20_2012,
"[2.6, 2.6]",4,0,23,23,3,,,,,56,0,56,0,left,0.458760802983,ZEV,m,23,59.9962581048,Set,2017_12_20_2012,
"[2.6, 2.6]",4,0,23,23,3,,,,,57,0,57,0,right,0.542121439241,ZEV,m,23,59.9962581048,Set,2017_12_20_2012,
"[2.6, 2.6]",4,0,23,23,3,,,,,58,0,58,0,left,0.40879905317,ZEV,m,23,59.9962581048,Set,2017_12_20_2012,
"[2.6, 2.6]",4,0,23,23,3,,,,,59,0,59,0,down,0.325477496372,ZEV,m,23,59.9962581048,Set,2017_12_20_2012,
"[2.6, 2.6]",4,0,23,23,3,,,,,60,0,60,0,down,0.208775605774,ZEV,m,23,59.9962581048,Set,2017_12_20_2012,
"[2.6, 2.6]",4,0,23,23,3,,,,,61,0,61,0,left,0.425451917225,ZEV,m,23,59.9962581048,Set,2017_12_20_2012,
"[2.6, 2.6]",4,0,23,23,3,,,,,62,0,62,0,left,0.408804974402,ZEV,m,23,59.9962581048,Set,2017_12_20_2012,
"[2.6, 2.6]",4,0,23,23,3,,,,,63,0,63,0,down,0.392123294529,ZEV,m,23,59.9962581048,Set,2017_12_20_2012,
"[2.6, 2.6]",4,0,23,23,3,,,,,64,0,64,0,down,0.558780618943,ZEV,m,23,59.9962581048,Set,2017_12_20_2012,
"[2.6, 2.6]",2,0,24,24,1,,,,,0,0,0,0,left,0.900229659281,ZEV,m,23,59.9962581048,Set,2017_12_20_2012,
"[2.6, 2.6]",2,0,24,24,1,,,,,1,0,1,0,down,1.12544654869,ZEV,m,23,59.9962581048,Set,2017_12_20_2012,
"[2.6, 2.6]",2,0,24,24,1,,,,,2,0,2,0,down,0.22547662782,ZEV,m,23,59.9962581048,Set,2017_12_20_2012,
"[2.9, 2.9]",3,0,25,25,20,,,,,0,0,0,0,left,0.400195316994,ZEV,m,23,59.9962581048,Set,2017_12_20_2012,
"[2.9, 2.9]",3,0,25,25,20,,,,,1,0,1,0,left,0.408790368936,ZEV,m,23,59.9962581048,Set,2017_12_20_2012,
"[2.9, 2.9]",3,0,25,25,20,,,,,2,0,2,0,left,0.725472285761,ZEV,m,23,59.9962581048,Set,2017_12_20_2012,
"[2.9, 2.9]",3,0,25,25,20,,,,,3,0,3,0,down,0.392145399819,ZEV,m,23,59.9962581048,Set,2017_12_20_2012,
"[2.9, 2.9]",3,0,25,25,20,,,,,4,0,4,0,left,0.525469364715,ZEV,m,23,59.9962581048,Set,2017_12_20_2012,
"[2.9, 2.9]",3,0,25,25,20,,,,,5,0,5,0,down,0.37546174624,ZEV,m,23,59.9962581048,Set,2017_12_20_2012,
"[2.9, 2.9]",3,0,25,25,20,,,,,6,0,6,0,left,0.742136202403,ZEV,m,23,59.9962581048,Set,2017_12_20_2012,
"[2.9, 2.9]",3,0,25,25,20,,,,,7,0,7,0,left,0.442142676096,ZEV,m,23,59.9962581048,Set,2017_12_20_2012,
"[2.9, 2.9]",3,0,25,25,20,,,,,8,0,8,0,left,0.608817763976,ZEV,m,23,59.9962581048,Set,2017_12_20_2012,
"[2.9, 2.9]",3,0,25,25,20,,,,,9,0,9,0,down,0.52545278566,ZEV,m,23,59.9962581048,Set,2017_12_20_2012,
"[2.9, 2.9]",3,0,25,25,20,,,,,10,0,10,0,down,0.442118991865,ZEV,m,23,59.9962581048,Set,2017_12_20_2012,
"[2.9, 2.9]",2,0,26,26,19,,,,,0,0,0,0,left,0.442101228517,ZEV,m,23,59.9962581048,Set,2017_12_20_2012,
"[2.9, 2.9]",2,0,26,26,19,,,,,1,0,1,0,down,0.508790053194,ZEV,m,23,59.9962581048,Set,2017_12_20_2012,
"[2.9, 2.9]",2,0,26,26,19,,,,,2,0,2,0,left,0.508732026559,ZEV,m,23,59.9962581048,Set,2017_12_20_2012,
"[2.9, 2.9]",2,0,26,26,19,,,,,3,0,3,0,down,0.558784566354,ZEV,m,23,59.9962581048,Set,2017_12_20_2012,
"[2.9, 2.9]",2,0,26,26,19,,,,,4,0,4,0,down,0.458795934799,ZEV,m,23,59.9962581048,Set,2017_12_20_2012,
"[2.7, 2.7]",3,0,27,27,8,,,,,0,0,0,0,left,0.775479825214,ZEV,m,23,59.9962581048,Set,2017_12_20_2012,
"[2.7, 2.7]",3,0,27,27,8,,,,,1,0,1,0,down,0.958789224271,ZEV,m,23,59.9962581048,Set,2017_12_20_2012,
"[2.7, 2.7]",3,0,27,27,8,,,,,2,0,2,0,down,0.1754576409,ZEV,m,23,59.9962581048,Set,2017_12_20_2012,
"[2.8, 2.8]",2,0,28,28,13,,,,,0,0,0,0,down,1.41688054951,ZEV,m,23,59.9962581048,Set,2017_12_20_2012,
"[2.8, 2.8]",2,0,28,28,13,,,,,1,0,1,0,down,0.475471298909,ZEV,m,23,59.9962581048,Set,2017_12_20_2012,
"[2.8, 2.8]",2,0,28,28,13,,,,,2,0,2,0,left,0.525430285605,ZEV,m,23,59.9962581048,Set,2017_12_20_2012,
"[2.8, 2.8]",2,0,28,28,13,,,,,3,0,3,0,left,0.942068859935,ZEV,m,23,59.9962581048,Set,2017_12_20_2012,
"[2.8, 2.8]",2,0,28,28,13,,,,,4,0,4,0,down,0.458791592624,ZEV,m,23,59.9962581048,Set,2017_12_20_2012,
"[2.8, 2.8]",2,0,28,28,13,,,,,5,0,5,0,down,0.492134820786,ZEV,m,23,59.9962581048,Set,2017_12_20_2012,
"[2.8, 2.8]",3,0,29,29,14,,,,,0,0,0,0,left,0.400265580625,ZEV,m,23,59.9962581048,Set,2017_12_20_2012,
"[2.8, 2.8]",3,0,29,29,14,,,,,1,0,1,0,left,0.792121636448,ZEV,m,23,59.9962581048,Set,2017_12_20_2012,
"[2.8, 2.8]",3,0,29,29,14,,,,,2,0,2,0,left,0.358785592718,ZEV,m,23,59.9962581048,Set,2017_12_20_2012,
"[2.8, 2.8]",3,0,29,29,14,,,,,3,0,3,0,down,0.408777737292,ZEV,m,23,59.9962581048,Set,2017_12_20_2012,
"[2.8, 2.8]",3,0,29,29,14,,,,,4,0,4,0,down,0.642161386786,ZEV,m,23,59.9962581048,Set,2017_12_20_2012,
"[2.8, 2.8]",3,0,29,29,14,,,,,5,0,5,0,left,0.558788513765,ZEV,m,23,59.9962581048,Set,2017_12_20_2012,
"[2.8, 2.8]",3,0,29,29,14,,,,,6,0,6,0,down,0.492108768085,ZEV,m,23,59.9962581048,Set,2017_12_20_2012,
"[2.8, 2.8]",3,0,29,29,14,,,,,7,0,7,0,down,0.44208307052,ZEV,m,23,59.9962581048,Set,2017_12_20_2012,
"[2.8, 2.8]",3,0,29,29,14,,,,,8,0,8,0,left,0.408775368938,ZEV,m,23,59.9962581048,Set,2017_12_20_2012,
"[2.8, 2.8]",3,0,29,29,14,,,,,9,0,9,0,left,0.442131228745,ZEV,m,23,59.9962581048,Set,2017_12_20_2012,
"[2.8, 2.8]",3,0,29,29,14,,,,,10,0,10,0,down,0.325462101493,ZEV,m,23,59.9962581048,Set,2017_12_20_2012,
"[2.8, 2.8]",3,0,29,29,14,,,,,11,0,11,0,down,0.392131583882,ZEV,m,23,59.9962581048,Set,2017_12_20_2012,
