size,n,trials_2.thisRepN,trials_2.thisTrialN,trials_2.thisN,trials_2.thisIndex,trials.thisRepN,trials.thisTrialN,trials.thisN,trials.thisIndex,trials_3.thisRepN,trials_3.thisTrialN,trials_3.thisN,trials_3.thisIndex,answer.keys,answer.rt,participant,gender,age,frameRate,expName,date,
"[2.6, 2.6]",2,0,0,0,1,,,,,0,0,0,0,down,4.32542973285,ZVV,f,25,60.0050688795,Set,2017_12_14_1917,
"[2.6, 2.6]",2,0,0,0,1,,,,,1,0,1,0,down,4.54206775461,ZVV,f,25,60.0050688795,Set,2017_12_14_1917,
"[2.9, 2.9]",4,0,1,1,21,,,,,0,0,0,0,left,1.89209171529,ZVV,f,25,60.0050688795,Set,2017_12_14_1917,
"[2.9, 2.9]",4,0,1,1,21,,,,,1,0,1,0,down,1.25877603996,ZVV,f,25,60.0050688795,Set,2017_12_14_1917,
"[2.9, 2.9]",4,0,1,1,21,,,,,2,0,2,0,down,0.708809948061,ZVV,f,25,60.0050688795,Set,2017_12_14_1917,
"[2.8, 2.8]",4,0,2,2,15,,,,,0,0,0,0,left,1.76689424699,ZVV,f,25,60.0050688795,Set,2017_12_14_1917,
"[2.8, 2.8]",4,0,2,2,15,,,,,1,0,1,0,left,0.825456575127,ZVV,f,25,60.0050688795,Set,2017_12_14_1917,
"[2.8, 2.8]",4,0,2,2,15,,,,,2,0,2,0,down,0.87526003446,ZVV,f,25,60.0050688795,Set,2017_12_14_1917,
"[2.8, 2.8]",4,0,2,2,15,,,,,3,0,3,0,down,0.642136123453,ZVV,f,25,60.0050688795,Set,2017_12_14_1917,
"[2.6, 2.6]",6,0,3,3,5,,,,,0,0,0,0,left,0.775507851751,ZVV,f,25,60.0050688795,Set,2017_12_14_1917,
"[2.6, 2.6]",6,0,3,3,5,,,,,1,0,1,0,left,1.09214042612,ZVV,f,25,60.0050688795,Set,2017_12_14_1917,
"[2.6, 2.6]",6,0,3,3,5,,,,,2,0,2,0,left,0.575459140935,ZVV,f,25,60.0050688795,Set,2017_12_14_1917,
"[2.6, 2.6]",6,0,3,3,5,,,,,3,0,3,0,down,1.14213651819,ZVV,f,25,60.0050688795,Set,2017_12_14_1917,
"[2.6, 2.6]",6,0,3,3,5,,,,,4,0,4,0,left,0.725481364745,ZVV,f,25,60.0050688795,Set,2017_12_14_1917,
"[2.6, 2.6]",6,0,3,3,5,,,,,5,0,5,0,left,0.692136162921,ZVV,f,25,60.0050688795,Set,2017_12_14_1917,
"[2.6, 2.6]",6,0,3,3,5,,,,,6,0,6,0,left,0.492120610215,ZVV,f,25,60.0050688795,Set,2017_12_14_1917,
"[2.6, 2.6]",6,0,3,3,5,,,,,7,0,7,0,down,1.44208267577,ZVV,f,25,60.0050688795,Set,2017_12_14_1917,
"[2.6, 2.6]",6,0,3,3,5,,,,,8,0,8,0,down,1.02547646999,ZVV,f,25,60.0050688795,Set,2017_12_14_1917,
"[2.6, 2.6]",6,0,3,3,5,,,,,9,0,9,0,left,0.600234159312,ZVV,f,25,60.0050688795,Set,2017_12_14_1917,
"[2.6, 2.6]",6,0,3,3,5,,,,,10,0,10,0,left,0.700218053942,ZVV,f,25,60.0050688795,Set,2017_12_14_1917,
"[2.6, 2.6]",6,0,3,3,5,,,,,11,0,11,0,left,0.616907154967,ZVV,f,25,60.0050688795,Set,2017_12_14_1917,
"[2.6, 2.6]",6,0,3,3,5,,,,,12,0,12,0,left,0.808826606051,ZVV,f,25,60.0050688795,Set,2017_12_14_1917,
"[2.6, 2.6]",6,0,3,3,5,,,,,13,0,13,0,left,0.825492496399,ZVV,f,25,60.0050688795,Set,2017_12_14_1917,
"[2.6, 2.6]",6,0,3,3,5,,,,,14,0,14,0,down,0.608942106759,ZVV,f,25,60.0050688795,Set,2017_12_14_1917,
"[2.6, 2.6]",6,0,3,3,5,,,,,15,0,15,0,left,0.958793171638,ZVV,f,25,60.0050688795,Set,2017_12_14_1917,
"[2.6, 2.6]",6,0,3,3,5,,,,,16,0,16,0,left,1.42543178551,ZVV,f,25,60.0050688795,Set,2017_12_14_1917,
"[2.6, 2.6]",6,0,3,3,5,,,,,17,0,17,0,left,0.95878409264,ZVV,f,25,60.0050688795,Set,2017_12_14_1917,
"[2.6, 2.6]",6,0,3,3,5,,,,,18,0,18,0,left,0.725468733101,ZVV,f,25,60.0050688795,Set,2017_12_14_1917,
"[2.6, 2.6]",6,0,3,3,5,,,,,19,0,19,0,down,0.675471456809,ZVV,f,25,60.0050688795,Set,2017_12_14_1917,
"[2.6, 2.6]",6,0,3,3,5,,,,,20,0,20,0,down,3.01686207575,ZVV,f,25,60.0050688795,Set,2017_12_14_1917,
"[2.6, 2.6]",6,0,3,3,5,,,,,21,0,21,0,left,0.741954227618,ZVV,f,25,60.0050688795,Set,2017_12_14_1917,
"[2.6, 2.6]",6,0,3,3,5,,,,,22,0,22,0,left,0.54214236034,ZVV,f,25,60.0050688795,Set,2017_12_14_1917,
"[2.6, 2.6]",6,0,3,3,5,,,,,23,0,23,0,left,1.85881875074,ZVV,f,25,60.0050688795,Set,2017_12_14_1917,
"[2.6, 2.6]",6,0,3,3,5,,,,,24,0,24,0,down,1.45880738227,ZVV,f,25,60.0050688795,Set,2017_12_14_1917,
"[2.6, 2.6]",6,0,3,3,5,,,,,25,0,25,0,left,1.69209945218,ZVV,f,25,60.0050688795,Set,2017_12_14_1917,
"[2.6, 2.6]",6,0,3,3,5,,,,,26,0,26,0,left,0.608784211057,ZVV,f,25,60.0050688795,Set,2017_12_14_1917,
"[2.6, 2.6]",6,0,3,3,5,,,,,27,0,27,0,left,1.00879321112,ZVV,f,25,60.0050688795,Set,2017_12_14_1917,
"[2.6, 2.6]",6,0,3,3,5,,,,,28,0,28,0,down,0.825469601521,ZVV,f,25,60.0050688795,Set,2017_12_14_1917,
"[2.6, 2.6]",6,0,3,3,5,,,,,29,0,29,0,left,0.642161386757,ZVV,f,25,60.0050688795,Set,2017_12_14_1917,
"[2.6, 2.6]",6,0,3,3,5,,,,,30,0,30,0,left,2.0754476935,ZVV,f,25,60.0050688795,Set,2017_12_14_1917,
"[2.6, 2.6]",6,0,3,3,5,,,,,31,0,31,0,down,0.608842237722,ZVV,f,25,60.0050688795,Set,2017_12_14_1917,
"[2.6, 2.6]",6,0,3,3,5,,,,,32,0,32,0,left,0.625486022691,ZVV,f,25,60.0050688795,Set,2017_12_14_1917,
"[2.6, 2.6]",6,0,3,3,5,,,,,33,0,33,0,left,1.99211626807,ZVV,f,25,60.0050688795,Set,2017_12_14_1917,
"[2.6, 2.6]",6,0,3,3,5,,,,,34,0,34,0,left,0.775457719879,ZVV,f,25,60.0050688795,Set,2017_12_14_1917,
"[2.6, 2.6]",6,0,3,3,5,,,,,35,0,35,0,down,0.558809434908,ZVV,f,25,60.0050688795,Set,2017_12_14_1917,
"[2.6, 2.6]",6,0,3,3,5,,,,,36,0,36,0,down,1.3421145707,ZVV,f,25,60.0050688795,Set,2017_12_14_1917,
"[2.8, 2.8]",1,0,4,4,12,,,,,0,0,0,0,left,1.70880086905,ZVV,f,25,60.0050688795,Set,2017_12_14_1917,
"[2.8, 2.8]",1,0,4,4,12,,,,,1,0,1,0,down,0.658781092614,ZVV,f,25,60.0050688795,Set,2017_12_14_1917,
"[2.8, 2.8]",1,0,4,4,12,,,,,2,0,2,0,down,0.775456930394,ZVV,f,25,60.0050688795,Set,2017_12_14_1917,
"[2.9, 2.9]",5,0,5,5,22,,,,,0,0,0,0,down,0.692154320932,ZVV,f,25,60.0050688795,Set,2017_12_14_1917,
"[2.9, 2.9]",5,0,5,5,22,,,,,1,0,1,0,left,0.758778408388,ZVV,f,25,60.0050688795,Set,2017_12_14_1917,
"[2.9, 2.9]",5,0,5,5,22,,,,,2,0,2,0,left,0.858808092788,ZVV,f,25,60.0050688795,Set,2017_12_14_1917,
"[2.9, 2.9]",5,0,5,5,22,,,,,3,0,3,0,down,0.692147610374,ZVV,f,25,60.0050688795,Set,2017_12_14_1917,
"[2.9, 2.9]",5,0,5,5,22,,,,,4,0,4,0,left,0.52546541729,ZVV,f,25,60.0050688795,Set,2017_12_14_1917,
"[2.9, 2.9]",5,0,5,5,22,,,,,5,0,5,0,left,0.942133991863,ZVV,f,25,60.0050688795,Set,2017_12_14_1917,
"[2.9, 2.9]",5,0,5,5,22,,,,,6,0,6,0,left,0.825449075084,ZVV,f,25,60.0050688795,Set,2017_12_14_1917,
"[2.9, 2.9]",5,0,5,5,22,,,,,7,0,7,0,left,0.525462654114,ZVV,f,25,60.0050688795,Set,2017_12_14_1917,
"[2.9, 2.9]",5,0,5,5,22,,,,,8,0,8,0,left,1.60877828998,ZVV,f,25,60.0050688795,Set,2017_12_14_1917,
"[2.9, 2.9]",5,0,5,5,22,,,,,9,0,9,0,left,2.49211429438,ZVV,f,25,60.0050688795,Set,2017_12_14_1917,
"[2.9, 2.9]",5,0,5,5,22,,,,,10,0,10,0,left,0.842132728692,ZVV,f,25,60.0050688795,Set,2017_12_14_1917,
"[2.9, 2.9]",5,0,5,5,22,,,,,11,0,11,0,down,0.533565466321,ZVV,f,25,60.0050688795,Set,2017_12_14_1917,
"[2.9, 2.9]",5,0,5,5,22,,,,,12,0,12,0,down,0.842112596991,ZVV,f,25,60.0050688795,Set,2017_12_14_1917,
"[2.6, 2.6]",3,0,6,6,2,,,,,0,0,0,0,left,0.592143189278,ZVV,f,25,60.0050688795,Set,2017_12_14_1917,
"[2.6, 2.6]",3,0,6,6,2,,,,,1,0,1,0,left,0.566858562568,ZVV,f,25,60.0050688795,Set,2017_12_14_1917,
"[2.6, 2.6]",3,0,6,6,2,,,,,2,0,2,0,down,0.592130952369,ZVV,f,25,60.0050688795,Set,2017_12_14_1917,
"[2.6, 2.6]",3,0,6,6,2,,,,,3,0,3,0,left,0.55878496106,ZVV,f,25,60.0050688795,Set,2017_12_14_1917,
"[2.6, 2.6]",3,0,6,6,2,,,,,4,0,4,0,left,0.508789263724,ZVV,f,25,60.0050688795,Set,2017_12_14_1917,
"[2.6, 2.6]",3,0,6,6,2,,,,,5,0,5,0,down,0.808798579572,ZVV,f,25,60.0050688795,Set,2017_12_14_1917,
"[2.6, 2.6]",3,0,6,6,2,,,,,6,0,6,0,left,1.70876968466,ZVV,f,25,60.0050688795,Set,2017_12_14_1917,
"[2.6, 2.6]",3,0,6,6,2,,,,,7,0,7,0,left,1.82547275943,ZVV,f,25,60.0050688795,Set,2017_12_14_1917,
"[2.6, 2.6]",3,0,6,6,2,,,,,8,0,8,0,left,0.492123373391,ZVV,f,25,60.0050688795,Set,2017_12_14_1917,
"[2.6, 2.6]",3,0,6,6,2,,,,,9,0,9,0,left,0.90877576363,ZVV,f,25,60.0050688795,Set,2017_12_14_1917,
"[2.6, 2.6]",3,0,6,6,2,,,,,10,0,10,0,left,0.592125426032,ZVV,f,25,60.0050688795,Set,2017_12_14_1917,
"[2.6, 2.6]",3,0,6,6,2,,,,,11,0,11,0,left,0.575457956729,ZVV,f,25,60.0050688795,Set,2017_12_14_1917,
"[2.6, 2.6]",3,0,6,6,2,,,,,12,0,12,0,left,0.458637644377,ZVV,f,25,60.0050688795,Set,2017_12_14_1917,
"[2.6, 2.6]",3,0,6,6,2,,,,,13,0,13,0,left,0.525508049133,ZVV,f,25,60.0050688795,Set,2017_12_14_1917,
"[2.6, 2.6]",3,0,6,6,2,,,,,14,0,14,0,left,0.425462180428,ZVV,f,25,60.0050688795,Set,2017_12_14_1917,
"[2.6, 2.6]",3,0,6,6,2,,,,,15,0,15,0,left,0.67545882515,ZVV,f,25,60.0050688795,Set,2017_12_14_1917,
"[2.6, 2.6]",3,0,6,6,2,,,,,16,0,16,0,down,0.591984504106,ZVV,f,25,60.0050688795,Set,2017_12_14_1917,
"[2.6, 2.6]",3,0,6,6,2,,,,,17,0,17,0,down,0.708788632139,ZVV,f,25,60.0050688795,Set,2017_12_14_1917,
"[2.7, 2.7]",5,0,7,7,10,,,,,0,0,0,0,left,0.93357565059,ZVV,f,25,60.0050688795,Set,2017_12_14_1917,
"[2.7, 2.7]",5,0,7,7,10,,,,,1,0,1,0,down,1.29213703136,ZVV,f,25,60.0050688795,Set,2017_12_14_1917,
"[2.7, 2.7]",5,0,7,7,10,,,,,2,0,2,0,down,0.525462259378,ZVV,f,25,60.0050688795,Set,2017_12_14_1917,
"[2.7, 2.7]",5,0,7,7,10,,,,,3,0,3,0,left,1.22545965409,ZVV,f,25,60.0050688795,Set,2017_12_14_1917,
"[2.7, 2.7]",5,0,7,7,10,,,,,4,0,4,0,down,0.425476391043,ZVV,f,25,60.0050688795,Set,2017_12_14_1917,
"[2.7, 2.7]",5,0,7,7,10,,,,,5,0,5,0,left,0.558820882332,ZVV,f,25,60.0050688795,Set,2017_12_14_1917,
"[2.7, 2.7]",5,0,7,7,10,,,,,6,0,6,0,down,0.45882909291,ZVV,f,25,60.0050688795,Set,2017_12_14_1917,
"[2.7, 2.7]",5,0,7,7,10,,,,,7,0,7,0,left,0.55881693495,ZVV,f,25,60.0050688795,Set,2017_12_14_1917,
"[2.7, 2.7]",5,0,7,7,10,,,,,8,0,8,0,left,0.44212609707,ZVV,f,25,60.0050688795,Set,2017_12_14_1917,
"[2.7, 2.7]",5,0,7,7,10,,,,,9,0,9,0,left,0.442150570918,ZVV,f,25,60.0050688795,Set,2017_12_14_1917,
"[2.7, 2.7]",5,0,7,7,10,,,,,10,0,10,0,down,0.475448009296,ZVV,f,25,60.0050688795,Set,2017_12_14_1917,
"[2.7, 2.7]",5,0,7,7,10,,,,,11,0,11,0,left,0.458806198032,ZVV,f,25,60.0050688795,Set,2017_12_14_1917,
"[2.7, 2.7]",5,0,7,7,10,,,,,12,0,12,0,left,0.475476825246,ZVV,f,25,60.0050688795,Set,2017_12_14_1917,
"[2.7, 2.7]",5,0,7,7,10,,,,,13,0,13,0,left,0.575428746015,ZVV,f,25,60.0050688795,Set,2017_12_14_1917,
"[2.7, 2.7]",5,0,7,7,10,,,,,14,0,14,0,down,0.558814961259,ZVV,f,25,60.0050688795,Set,2017_12_14_1917,
"[2.7, 2.7]",5,0,7,7,10,,,,,15,0,15,0,down,0.742140544535,ZVV,f,25,60.0050688795,Set,2017_12_14_1917,
"[2.7, 2.7]",5,0,7,7,10,,,,,16,0,16,0,left,0.525461469893,ZVV,f,25,60.0050688795,Set,2017_12_14_1917,
"[2.7, 2.7]",5,0,7,7,10,,,,,17,0,17,0,left,0.725321890102,ZVV,f,25,60.0050688795,Set,2017_12_14_1917,
"[2.7, 2.7]",5,0,7,7,10,,,,,18,0,18,0,left,0.475494193772,ZVV,f,25,60.0050688795,Set,2017_12_14_1917,
"[2.7, 2.7]",5,0,7,7,10,,,,,19,0,19,0,left,1.02544410138,ZVV,f,25,60.0050688795,Set,2017_12_14_1917,
"[2.7, 2.7]",5,0,7,7,10,,,,,20,0,20,0,left,0.408804579609,ZVV,f,25,60.0050688795,Set,2017_12_14_1917,
"[2.7, 2.7]",5,0,7,7,10,,,,,21,0,21,0,left,0.425351653452,ZVV,f,25,60.0050688795,Set,2017_12_14_1917,
"[2.7, 2.7]",5,0,7,7,10,,,,,22,0,22,0,down,0.675457246194,ZVV,f,25,60.0050688795,Set,2017_12_14_1917,
"[2.7, 2.7]",5,0,7,7,10,,,,,23,0,23,0,down,0.558833119256,ZVV,f,25,60.0050688795,Set,2017_12_14_1917,
"[2.7, 2.7]",5,0,7,7,10,,,,,24,0,24,0,left,0.475500114859,ZVV,f,25,60.0050688795,Set,2017_12_14_1917,
"[2.7, 2.7]",5,0,7,7,10,,,,,25,0,25,0,left,0.742196992243,ZVV,f,25,60.0050688795,Set,2017_12_14_1917,
"[2.7, 2.7]",5,0,7,7,10,,,,,26,0,26,0,left,0.442199123834,ZVV,f,25,60.0050688795,Set,2017_12_14_1917,
"[2.7, 2.7]",5,0,7,7,10,,,,,27,0,27,0,left,0.425454285636,ZVV,f,25,60.0050688795,Set,2017_12_14_1917,
"[2.7, 2.7]",5,0,7,7,10,,,,,28,0,28,0,down,0.525538444053,ZVV,f,25,60.0050688795,Set,2017_12_14_1917,
"[2.7, 2.7]",5,0,7,7,10,,,,,29,0,29,0,left,0.442163597298,ZVV,f,25,60.0050688795,Set,2017_12_14_1917,
"[2.7, 2.7]",5,0,7,7,10,,,,,30,0,30,0,down,0.508800711163,ZVV,f,25,60.0050688795,Set,2017_12_14_1917,
"[2.7, 2.7]",5,0,7,7,10,,,,,31,0,31,0,down,0.408792737435,ZVV,f,25,60.0050688795,Set,2017_12_14_1917,
"[2.7, 2.7]",2,0,8,8,7,,,,,0,0,0,0,left,0.625454838271,ZVV,f,25,60.0050688795,Set,2017_12_14_1917,
"[2.7, 2.7]",2,0,8,8,7,,,,,1,0,1,0,down,0.558803119071,ZVV,f,25,60.0050688795,Set,2017_12_14_1917,
"[2.7, 2.7]",2,0,8,8,7,,,,,2,0,2,0,down,0.425447575079,ZVV,f,25,60.0050688795,Set,2017_12_14_1917,
"[2.8, 2.8]",2,0,9,9,13,,,,,0,0,0,0,left,1.11691899714,ZVV,f,25,60.0050688795,Set,2017_12_14_1917,
"[2.8, 2.8]",2,0,9,9,13,,,,,1,0,1,0,down,0.458780539993,ZVV,f,25,60.0050688795,Set,2017_12_14_1917,
"[2.8, 2.8]",2,0,9,9,13,,,,,2,0,2,0,down,0.608784211057,ZVV,f,25,60.0050688795,Set,2017_12_14_1917,
"[2.8, 2.8]",2,0,9,9,13,,,,,3,0,3,0,left,0.7421543604,ZVV,f,25,60.0050688795,Set,2017_12_14_1917,
"[2.8, 2.8]",2,0,9,9,13,,,,,4,0,4,0,down,1.0921502946,ZVV,f,25,60.0050688795,Set,2017_12_14_1917,
"[2.8, 2.8]",2,0,9,9,13,,,,,5,0,5,0,left,0.442125702335,ZVV,f,25,60.0050688795,Set,2017_12_14_1917,
"[2.8, 2.8]",2,0,9,9,13,,,,,6,0,6,0,left,0.392169084182,ZVV,f,25,60.0050688795,Set,2017_12_14_1917,
"[2.8, 2.8]",2,0,9,9,13,,,,,7,0,7,0,left,0.575463088331,ZVV,f,25,60.0050688795,Set,2017_12_14_1917,
"[2.8, 2.8]",2,0,9,9,13,,,,,8,0,8,0,left,0.40879273742,ZVV,f,25,60.0050688795,Set,2017_12_14_1917,
"[2.8, 2.8]",2,0,9,9,13,,,,,9,0,9,0,left,0.592155820937,ZVV,f,25,60.0050688795,Set,2017_12_14_1917,
"[2.8, 2.8]",2,0,9,9,13,,,,,10,0,10,0,down,0.442259518939,ZVV,f,25,60.0050688795,Set,2017_12_14_1917,
"[2.8, 2.8]",2,0,9,9,13,,,,,11,0,11,0,down,0.442136755039,ZVV,f,25,60.0050688795,Set,2017_12_14_1917,
"[3.0, 3.0]",3,0,10,10,26,,,,,0,0,0,0,left,0.525480417389,ZVV,f,25,60.0050688795,Set,2017_12_14_1917,
"[3.0, 3.0]",3,0,10,10,26,,,,,1,0,1,0,left,0.442111096985,ZVV,f,25,60.0050688795,Set,2017_12_14_1917,
"[3.0, 3.0]",3,0,10,10,26,,,,,2,0,2,0,left,0.958791197947,ZVV,f,25,60.0050688795,Set,2017_12_14_1917,
"[3.0, 3.0]",3,0,10,10,26,,,,,3,0,3,0,left,0.342098781126,ZVV,f,25,60.0050688795,Set,2017_12_14_1917,
"[3.0, 3.0]",3,0,10,10,26,,,,,4,0,4,0,right,2.57544690403,ZVV,f,25,60.0050688795,Set,2017_12_14_1917,
"[3.0, 3.0]",3,0,10,10,26,,,,,5,0,5,0,down,0.608782632102,ZVV,f,25,60.0050688795,Set,2017_12_14_1917,
"[3.0, 3.0]",3,0,10,10,26,,,,,6,0,6,0,down,0.692107741706,ZVV,f,25,60.0050688795,Set,2017_12_14_1917,
"[3.0, 3.0]",3,0,10,10,26,,,,,7,0,7,0,left,0.525475680508,ZVV,f,25,60.0050688795,Set,2017_12_14_1917,
"[3.0, 3.0]",3,0,10,10,26,,,,,8,0,8,0,left,0.625470627856,ZVV,f,25,60.0050688795,Set,2017_12_14_1917,
"[3.0, 3.0]",3,0,10,10,26,,,,,9,0,9,0,left,0.658795697978,ZVV,f,25,60.0050688795,Set,2017_12_14_1917,
"[3.0, 3.0]",3,0,10,10,26,,,,,10,0,10,0,left,0.508822027085,ZVV,f,25,60.0050688795,Set,2017_12_14_1917,
"[3.0, 3.0]",3,0,10,10,26,,,,,11,0,11,0,down,0.842132728707,ZVV,f,25,60.0050688795,Set,2017_12_14_1917,
"[3.0, 3.0]",3,0,10,10,26,,,,,12,0,12,0,down,0.458810540164,ZVV,f,25,60.0050688795,Set,2017_12_14_1917,
"[3.0, 3.0]",3,0,10,10,26,,,,,13,0,13,0,left,1.24215080777,ZVV,f,25,60.0050688795,Set,2017_12_14_1917,
"[3.0, 3.0]",3,0,10,10,26,,,,,14,0,14,0,left,0.458804224341,ZVV,f,25,60.0050688795,Set,2017_12_14_1917,
"[3.0, 3.0]",3,0,10,10,26,,,,,15,0,15,0,down,0.50882479026,ZVV,f,25,60.0050688795,Set,2017_12_14_1917,
"[3.0, 3.0]",3,0,10,10,26,,,,,16,0,16,0,down,0.442130044481,ZVV,f,25,60.0050688795,Set,2017_12_14_1917,
"[2.9, 2.9]",2,0,11,11,19,,,,,0,0,0,0,down,0.658796487449,ZVV,f,25,60.0050688795,Set,2017_12_14_1917,
"[2.9, 2.9]",2,0,11,11,19,,,,,1,0,1,0,left,0.592132531325,ZVV,f,25,60.0050688795,Set,2017_12_14_1917,
"[2.9, 2.9]",2,0,11,11,19,,,,,2,0,2,0,left,0.45881409281,ZVV,f,25,60.0050688795,Set,2017_12_14_1917,
"[2.9, 2.9]",2,0,11,11,19,,,,,3,0,3,0,left,0.642170860505,ZVV,f,25,60.0050688795,Set,2017_12_14_1917,
"[2.9, 2.9]",2,0,11,11,19,,,,,4,0,4,0,left,0.408786026863,ZVV,f,25,60.0050688795,Set,2017_12_14_1917,
"[2.9, 2.9]",2,0,11,11,19,,,,,5,0,5,0,left,1.10880592171,ZVV,f,25,60.0050688795,Set,2017_12_14_1917,
"[2.9, 2.9]",2,0,11,11,19,,,,,6,0,6,0,left,0.392156057787,ZVV,f,25,60.0050688795,Set,2017_12_14_1917,
"[2.9, 2.9]",2,0,11,11,19,,,,,7,0,7,0,left,0.358837698222,ZVV,f,25,60.0050688795,Set,2017_12_14_1917,
"[2.9, 2.9]",2,0,11,11,19,,,,,8,0,8,0,down,0.458802645371,ZVV,f,25,60.0050688795,Set,2017_12_14_1917,
"[2.9, 2.9]",2,0,11,11,19,,,,,9,0,9,0,left,0.392122110206,ZVV,f,25,60.0050688795,Set,2017_12_14_1917,
"[2.9, 2.9]",2,0,11,11,19,,,,,10,0,10,0,left,0.500232896142,ZVV,f,25,60.0050688795,Set,2017_12_14_1917,
"[2.9, 2.9]",2,0,11,11,19,,,,,11,0,11,0,down,0.558792855853,ZVV,f,25,60.0050688795,Set,2017_12_14_1917,
"[2.9, 2.9]",2,0,11,11,19,,,,,12,0,12,0,left,0.442124123379,ZVV,f,25,60.0050688795,Set,2017_12_14_1917,
"[2.9, 2.9]",2,0,11,11,19,,,,,13,0,13,0,down,0.516952076287,ZVV,f,25,60.0050688795,Set,2017_12_14_1917,
"[2.9, 2.9]",2,0,11,11,19,,,,,14,0,14,0,down,0.525525417645,ZVV,f,25,60.0050688795,Set,2017_12_14_1917,
"[2.9, 2.9]",1,0,12,12,18,,,,,0,0,0,0,left,0.575455193539,ZVV,f,25,60.0050688795,Set,2017_12_14_1917,
"[2.9, 2.9]",1,0,12,12,18,,,,,1,0,1,0,down,0.475448404031,ZVV,f,25,60.0050688795,Set,2017_12_14_1917,
"[2.9, 2.9]",1,0,12,12,18,,,,,2,0,2,0,down,0.408787605833,ZVV,f,25,60.0050688795,Set,2017_12_14_1917,
"[3.0, 3.0]",1,0,13,13,24,,,,,0,0,0,0,left,0.558807066453,ZVV,f,25,60.0050688795,Set,2017_12_14_1917,
"[3.0, 3.0]",1,0,13,13,24,,,,,1,0,1,0,left,0.37547437787,ZVV,f,25,60.0050688795,Set,2017_12_14_1917,
"[3.0, 3.0]",1,0,13,13,24,,,,,2,0,2,0,down,0.408754052987,ZVV,f,25,60.0050688795,Set,2017_12_14_1917,
"[3.0, 3.0]",1,0,13,13,24,,,,,3,0,3,0,down,0.392204610704,ZVV,f,25,60.0050688795,Set,2017_12_14_1917,
"[2.6, 2.6]",1,0,14,14,0,,,,,0,0,0,0,left,3.51691418132,ZVV,f,25,60.0050688795,Set,2017_12_14_1917,
"[2.6, 2.6]",1,0,14,14,0,,,,,1,0,1,0,down,0.458808566473,ZVV,f,25,60.0050688795,Set,2017_12_14_1917,
"[2.6, 2.6]",1,0,14,14,0,,,,,2,0,2,0,down,0.408785237392,ZVV,f,25,60.0050688795,Set,2017_12_14_1917,
"[2.6, 2.6]",1,0,14,14,0,,,,,3,0,3,0,left,0.475482351612,ZVV,f,25,60.0050688795,Set,2017_12_14_1917,
"[2.6, 2.6]",1,0,14,14,0,,,,,4,0,4,0,left,0.42548231213,ZVV,f,25,60.0050688795,Set,2017_12_14_1917,
"[2.6, 2.6]",1,0,14,14,0,,,,,5,0,5,0,left,1.15879056636,ZVV,f,25,60.0050688795,Set,2017_12_14_1917,
"[2.6, 2.6]",1,0,14,14,0,,,,,6,0,6,0,left,0.358813619139,ZVV,f,25,60.0050688795,Set,2017_12_14_1917,
"[2.6, 2.6]",1,0,14,14,0,,,,,7,0,7,0,left,0.39214816301,ZVV,f,25,60.0050688795,Set,2017_12_14_1917,
"[2.6, 2.6]",1,0,14,14,0,,,,,8,0,8,0,left,0.558805092762,ZVV,f,25,60.0050688795,Set,2017_12_14_1917,
"[2.6, 2.6]",1,0,14,14,0,,,,,9,0,9,0,down,0.425480338439,ZVV,f,25,60.0050688795,Set,2017_12_14_1917,
"[2.6, 2.6]",1,0,14,14,0,,,,,10,0,10,0,down,0.592136083971,ZVV,f,25,60.0050688795,Set,2017_12_14_1917,
"[2.6, 2.6]",1,0,14,14,0,,,,,11,0,11,0,right,1.20878507949,ZVV,f,25,60.0050688795,Set,2017_12_14_1917,
"[2.6, 2.6]",1,0,14,14,0,,,,,12,0,12,0,left,0.642111254885,ZVV,f,25,60.0050688795,Set,2017_12_14_1917,
"[2.6, 2.6]",1,0,14,14,0,,,,,13,0,13,0,left,0.442137544509,ZVV,f,25,60.0050688795,Set,2017_12_14_1917,
"[2.6, 2.6]",1,0,14,14,0,,,,,14,0,14,0,left,0.983578058498,ZVV,f,25,60.0050688795,Set,2017_12_14_1917,
"[2.6, 2.6]",1,0,14,14,0,,,,,15,0,15,0,down,0.408791158465,ZVV,f,25,60.0050688795,Set,2017_12_14_1917,
"[2.6, 2.6]",1,0,14,14,0,,,,,16,0,16,0,down,1.02550015434,ZVV,f,25,60.0050688795,Set,2017_12_14_1917,
"[3.0, 3.0]",2,0,15,15,25,,,,,0,0,0,0,down,0.550238067241,ZVV,f,25,60.0050688795,Set,2017_12_14_1917,
"[3.0, 3.0]",2,0,15,15,25,,,,,1,0,1,0,left,0.475481167392,ZVV,f,25,60.0050688795,Set,2017_12_14_1917,
"[3.0, 3.0]",2,0,15,15,25,,,,,2,0,2,0,left,0.808778842606,ZVV,f,25,60.0050688795,Set,2017_12_14_1917,
"[3.0, 3.0]",2,0,15,15,25,,,,,3,0,3,0,left,0.675467904148,ZVV,f,25,60.0050688795,Set,2017_12_14_1917,
"[3.0, 3.0]",2,0,15,15,25,,,,,4,0,4,0,down,0.46690901024,ZVV,f,25,60.0050688795,Set,2017_12_14_1917,
"[3.0, 3.0]",2,0,15,15,25,,,,,5,0,5,0,down,0.525501338561,ZVV,f,25,60.0050688795,Set,2017_12_14_1917,
"[3.0, 3.0]",4,0,16,16,27,,,,,0,0,0,0,left,0.508861106267,ZVV,f,25,60.0050688795,Set,2017_12_14_1917,
"[3.0, 3.0]",4,0,16,16,27,,,,,1,0,1,0,left,0.742098307426,ZVV,f,25,60.0050688795,Set,2017_12_14_1917,
"[3.0, 3.0]",4,0,16,16,27,,,,,2,0,2,0,left,0.742129886581,ZVV,f,25,60.0050688795,Set,2017_12_14_1917,
"[3.0, 3.0]",4,0,16,16,27,,,,,3,0,3,0,left,0.675482114762,ZVV,f,25,60.0050688795,Set,2017_12_14_1917,
"[3.0, 3.0]",4,0,16,16,27,,,,,4,0,4,0,left,0.508810579646,ZVV,f,25,60.0050688795,Set,2017_12_14_1917,
"[3.0, 3.0]",4,0,16,16,27,,,,,5,0,5,0,down,0.450239172496,ZVV,f,25,60.0050688795,Set,2017_12_14_1917,
"[3.0, 3.0]",4,0,16,16,27,,,,,6,0,6,0,left,0.375447930346,ZVV,f,25,60.0050688795,Set,2017_12_14_1917,
"[3.0, 3.0]",4,0,16,16,27,,,,,7,0,7,0,left,0.392130399734,ZVV,f,25,60.0050688795,Set,2017_12_14_1917,
"[3.0, 3.0]",4,0,16,16,27,,,,,8,0,8,0,left,0.575472167329,ZVV,f,25,60.0050688795,Set,2017_12_14_1917,
"[3.0, 3.0]",4,0,16,16,27,,,,,9,0,9,0,down,0.458818040221,ZVV,f,25,60.0050688795,Set,2017_12_14_1917,
"[3.0, 3.0]",4,0,16,16,27,,,,,10,0,10,0,left,0.458799092739,ZVV,f,25,60.0050688795,Set,2017_12_14_1917,
"[3.0, 3.0]",4,0,16,16,27,,,,,11,0,11,0,left,0.542122228639,ZVV,f,25,60.0050688795,Set,2017_12_14_1917,
"[3.0, 3.0]",4,0,16,16,27,,,,,12,0,12,0,left,0.625457601447,ZVV,f,25,60.0050688795,Set,2017_12_14_1917,
"[3.0, 3.0]",4,0,16,16,27,,,,,13,0,13,0,down,0.358795066393,ZVV,f,25,60.0050688795,Set,2017_12_14_1917,
"[3.0, 3.0]",4,0,16,16,27,,,,,14,0,14,0,down,0.633584098017,ZVV,f,25,60.0050688795,Set,2017_12_14_1917,
"[2.7, 2.7]",6,0,17,17,11,,,,,0,0,0,0,down,0.6835691374,ZVV,f,25,60.0050688795,Set,2017_12_14_1917,
"[2.7, 2.7]",6,0,17,17,11,,,,,1,0,1,0,down,1.57547453577,ZVV,f,25,60.0050688795,Set,2017_12_14_1917,
"[2.7, 2.7]",6,0,17,17,11,,,,,2,0,2,0,left,0.642127439191,ZVV,f,25,60.0050688795,Set,2017_12_14_1917,
"[2.7, 2.7]",6,0,17,17,11,,,,,3,0,3,0,down,0.442113465426,ZVV,f,25,60.0050688795,Set,2017_12_14_1917,
"[2.7, 2.7]",6,0,17,17,11,,,,,4,0,4,0,down,0.592131741854,ZVV,f,25,60.0050688795,Set,2017_12_14_1917,
"[2.8, 2.8]",3,0,18,18,14,,,,,0,0,0,0,left,0.600238106708,ZVV,f,25,60.0050688795,Set,2017_12_14_1917,
"[2.8, 2.8]",3,0,18,18,14,,,,,1,0,1,0,down,0.542131307637,ZVV,f,25,60.0050688795,Set,2017_12_14_1917,
"[2.8, 2.8]",3,0,18,18,14,,,,,2,0,2,0,left,1.39212408391,ZVV,f,25,60.0050688795,Set,2017_12_14_1917,
"[2.8, 2.8]",3,0,18,18,14,,,,,3,0,3,0,down,0.4421545183,ZVV,f,25,60.0050688795,Set,2017_12_14_1917,
"[2.8, 2.8]",3,0,18,18,14,,,,,4,0,4,0,down,0.542168018379,ZVV,f,25,60.0050688795,Set,2017_12_14_1917,
"[2.8, 2.8]",3,0,18,18,14,,,,,5,0,5,0,left,0.77546087779,ZVV,f,25,60.0050688795,Set,2017_12_14_1917,
"[2.8, 2.8]",3,0,18,18,14,,,,,6,0,6,0,left,0.525445680338,ZVV,f,25,60.0050688795,Set,2017_12_14_1917,
"[2.8, 2.8]",3,0,18,18,14,,,,,7,0,7,0,down,0.416917260285,ZVV,f,25,60.0050688795,Set,2017_12_14_1917,
"[2.8, 2.8]",3,0,18,18,14,,,,,8,0,8,0,down,0.375447535611,ZVV,f,25,60.0050688795,Set,2017_12_14_1917,
"[2.7, 2.7]",3,0,19,19,8,,,,,0,0,0,0,down,0.750244935698,ZVV,f,25,60.0050688795,Set,2017_12_14_1917,
"[2.7, 2.7]",3,0,19,19,8,,,,,1,0,1,0,down,0.442134386598,ZVV,f,25,60.0050688795,Set,2017_12_14_1917,
"[3.0, 3.0]",6,0,20,20,29,,,,,0,0,0,0,left,0.625464706754,ZVV,f,25,60.0050688795,Set,2017_12_14_1917,
"[3.0, 3.0]",6,0,20,20,29,,,,,1,0,1,0,left,1.50879242164,ZVV,f,25,60.0050688795,Set,2017_12_14_1917,
"[3.0, 3.0]",6,0,20,20,29,,,,,2,0,2,0,down,0.492105610116,ZVV,f,25,60.0050688795,Set,2017_12_14_1917,
"[3.0, 3.0]",6,0,20,20,29,,,,,3,0,3,0,left,0.475445640855,ZVV,f,25,60.0050688795,Set,2017_12_14_1917,
"[3.0, 3.0]",6,0,20,20,29,,,,,4,0,4,0,left,0.425470469956,ZVV,f,25,60.0050688795,Set,2017_12_14_1917,
"[3.0, 3.0]",6,0,20,20,29,,,,,5,0,5,0,down,0.442153728829,ZVV,f,25,60.0050688795,Set,2017_12_14_1917,
"[3.0, 3.0]",6,0,20,20,29,,,,,6,0,6,0,left,0.492113899643,ZVV,f,25,60.0050688795,Set,2017_12_14_1917,
"[3.0, 3.0]",6,0,20,20,29,,,,,7,0,7,0,down,0.408809711225,ZVV,f,25,60.0050688795,Set,2017_12_14_1917,
"[3.0, 3.0]",6,0,20,20,29,,,,,8,0,8,0,down,0.542139202415,ZVV,f,25,60.0050688795,Set,2017_12_14_1917,
"[2.6, 2.6]",5,0,21,21,4,,,,,0,0,0,0,down,0.725462811999,ZVV,f,25,60.0050688795,Set,2017_12_14_1917,
"[2.6, 2.6]",5,0,21,21,4,,,,,1,0,1,0,down,0.458771855716,ZVV,f,25,60.0050688795,Set,2017_12_14_1917,
"[2.6, 2.6]",5,0,21,21,4,,,,,2,0,2,0,right,1.07546506202,ZVV,f,25,60.0050688795,Set,2017_12_14_1917,
"[2.6, 2.6]",5,0,21,21,4,,,,,3,0,3,0,down,0.475456298824,ZVV,f,25,60.0050688795,Set,2017_12_14_1917,
"[2.6, 2.6]",5,0,21,21,4,,,,,4,0,4,0,left,0.475474851555,ZVV,f,25,60.0050688795,Set,2017_12_14_1917,
"[2.6, 2.6]",5,0,21,21,4,,,,,5,0,5,0,left,0.458784487375,ZVV,f,25,60.0050688795,Set,2017_12_14_1917,
"[2.6, 2.6]",5,0,21,21,4,,,,,6,0,6,0,left,0.375485430573,ZVV,f,25,60.0050688795,Set,2017_12_14_1917,
"[2.6, 2.6]",5,0,21,21,4,,,,,7,0,7,0,left,0.625449706669,ZVV,f,25,60.0050688795,Set,2017_12_14_1917,
"[2.6, 2.6]",5,0,21,21,4,,,,,8,0,8,0,down,0.525447654029,ZVV,f,25,60.0050688795,Set,2017_12_14_1917,
"[2.6, 2.6]",5,0,21,21,4,,,,,9,0,9,0,down,0.7754589041,ZVV,f,25,60.0050688795,Set,2017_12_14_1917,
"[2.6, 2.6]",5,0,21,21,4,,,,,10,0,10,0,left,1.19214247876,ZVV,f,25,60.0050688795,Set,2017_12_14_1917,
"[2.6, 2.6]",5,0,21,21,4,,,,,11,0,11,0,left,0.675441061889,ZVV,f,25,60.0050688795,Set,2017_12_14_1917,
"[2.6, 2.6]",5,0,21,21,4,,,,,12,0,12,0,left,0.725396890557,ZVV,f,25,60.0050688795,Set,2017_12_14_1917,
"[2.6, 2.6]",5,0,21,21,4,,,,,13,0,13,0,down,0.875452272463,ZVV,f,25,60.0050688795,Set,2017_12_14_1917,
"[2.6, 2.6]",5,0,21,21,4,,,,,14,0,14,0,left,0.80024260674,ZVV,f,25,60.0050688795,Set,2017_12_14_1917,
"[2.6, 2.6]",5,0,21,21,4,,,,,15,0,15,0,left,0.542139202415,ZVV,f,25,60.0050688795,Set,2017_12_14_1917,
"[2.6, 2.6]",5,0,21,21,4,,,,,16,0,16,0,left,0.508627025905,ZVV,f,25,60.0050688795,Set,2017_12_14_1917,
"[2.6, 2.6]",5,0,21,21,4,,,,,17,0,17,0,left,0.60879329007,ZVV,f,25,60.0050688795,Set,2017_12_14_1917,
"[2.6, 2.6]",5,0,21,21,4,,,,,18,0,18,0,left,0.475453535633,ZVV,f,25,60.0050688795,Set,2017_12_14_1917,
"[2.6, 2.6]",5,0,21,21,4,,,,,19,0,19,0,right,0.742150413003,ZVV,f,25,60.0050688795,Set,2017_12_14_1917,
"[2.6, 2.6]",5,0,21,21,4,,,,,20,0,20,0,left,0.442109912765,ZVV,f,25,60.0050688795,Set,2017_12_14_1917,
"[2.6, 2.6]",5,0,21,21,4,,,,,21,0,21,0,left,0.592153057776,ZVV,f,25,60.0050688795,Set,2017_12_14_1917,
"[2.6, 2.6]",5,0,21,21,4,,,,,22,0,22,0,left,0.525493838519,ZVV,f,25,60.0050688795,Set,2017_12_14_1917,
"[2.6, 2.6]",5,0,21,21,4,,,,,23,0,23,0,left,0.408797474302,ZVV,f,25,60.0050688795,Set,2017_12_14_1917,
"[2.6, 2.6]",5,0,21,21,4,,,,,24,0,24,0,left,0.475472877864,ZVV,f,25,60.0050688795,Set,2017_12_14_1917,
"[2.6, 2.6]",5,0,21,21,4,,,,,25,0,25,0,left,0.558771145195,ZVV,f,25,60.0050688795,Set,2017_12_14_1917,
"[2.6, 2.6]",5,0,21,21,4,,,,,26,0,26,0,down,0.592160163069,ZVV,f,25,60.0050688795,Set,2017_12_14_1917,
"[2.6, 2.6]",5,0,21,21,4,,,,,27,0,27,0,down,0.842114965431,ZVV,f,25,60.0050688795,Set,2017_12_14_1917,
"[2.9, 2.9]",3,0,22,22,20,,,,,0,0,0,0,left,0.5421257813,ZVV,f,25,60.0050688795,Set,2017_12_14_1917,
"[2.9, 2.9]",3,0,22,22,20,,,,,1,0,1,0,left,0.425447969814,ZVV,f,25,60.0050688795,Set,2017_12_14_1917,
"[2.9, 2.9]",3,0,22,22,20,,,,,2,0,2,0,down,0.858767434635,ZVV,f,25,60.0050688795,Set,2017_12_14_1917,
"[2.9, 2.9]",3,0,22,22,20,,,,,3,0,3,0,left,0.575457956729,ZVV,f,25,60.0050688795,Set,2017_12_14_1917,
"[2.9, 2.9]",3,0,22,22,20,,,,,4,0,4,0,left,0.700219238177,ZVV,f,25,60.0050688795,Set,2017_12_14_1917,
"[2.9, 2.9]",3,0,22,22,20,,,,,5,0,5,0,left,0.742180018467,ZVV,f,25,60.0050688795,Set,2017_12_14_1917,
"[2.9, 2.9]",3,0,22,22,20,,,,,6,0,6,0,down,0.575478483166,ZVV,f,25,60.0050688795,Set,2017_12_14_1917,
"[2.9, 2.9]",3,0,22,22,20,,,,,7,0,7,0,left,0.575557431002,ZVV,f,25,60.0050688795,Set,2017_12_14_1917,
"[2.9, 2.9]",3,0,22,22,20,,,,,8,0,8,0,down,0.442100439031,ZVV,f,25,60.0050688795,Set,2017_12_14_1917,
"[2.9, 2.9]",3,0,22,22,20,,,,,9,0,9,0,down,1.05879088215,ZVV,f,25,60.0050688795,Set,2017_12_14_1917,
"[2.6, 2.6]",4,0,23,23,3,,,,,0,0,0,0,down,0.591987267297,ZVV,f,25,60.0050688795,Set,2017_12_14_1917,
"[2.6, 2.6]",4,0,23,23,3,,,,,1,0,1,0,down,0.508827553422,ZVV,f,25,60.0050688795,Set,2017_12_14_1917,
"[2.7, 2.7]",1,0,24,24,6,,,,,0,0,0,0,left,0.850243435678,ZVV,f,25,60.0050688795,Set,2017_12_14_1917,
"[2.7, 2.7]",1,0,24,24,6,,,,,1,0,1,0,left,1.30866357876,ZVV,f,25,60.0050688795,Set,2017_12_14_1917,
"[2.7, 2.7]",1,0,24,24,6,,,,,2,0,2,0,down,0.725317153236,ZVV,f,25,60.0050688795,Set,2017_12_14_1917,
"[2.7, 2.7]",1,0,24,24,6,,,,,3,0,3,0,left,0.908749710841,ZVV,f,25,60.0050688795,Set,2017_12_14_1917,
"[2.7, 2.7]",1,0,24,24,6,,,,,4,0,4,0,down,0.458793171638,ZVV,f,25,60.0050688795,Set,2017_12_14_1917,
"[2.7, 2.7]",1,0,24,24,6,,,,,5,0,5,0,down,0.692099846914,ZVV,f,25,60.0050688795,Set,2017_12_14_1917,
"[2.7, 2.7]",4,0,25,25,9,,,,,0,0,0,0,left,0.525455154071,ZVV,f,25,60.0050688795,Set,2017_12_14_1917,
"[2.7, 2.7]",4,0,25,25,9,,,,,1,0,1,0,left,1.14217362368,ZVV,f,25,60.0050688795,Set,2017_12_14_1917,
"[2.7, 2.7]",4,0,25,25,9,,,,,2,0,2,0,left,1.35877611891,ZVV,f,25,60.0050688795,Set,2017_12_14_1917,
"[2.7, 2.7]",4,0,25,25,9,,,,,3,0,3,0,down,1.10022231714,ZVV,f,25,60.0050688795,Set,2017_12_14_1917,
"[2.7, 2.7]",4,0,25,25,9,,,,,4,0,4,0,down,0.458794750608,ZVV,f,25,60.0050688795,Set,2017_12_14_1917,
"[3.0, 3.0]",5,0,26,26,28,,,,,0,0,0,0,left,0.608801974333,ZVV,f,25,60.0050688795,Set,2017_12_14_1917,
"[3.0, 3.0]",5,0,26,26,28,,,,,1,0,1,0,left,0.592130952369,ZVV,f,25,60.0050688795,Set,2017_12_14_1917,
"[3.0, 3.0]",5,0,26,26,28,,,,,2,0,2,0,down,0.64208164945,ZVV,f,25,60.0050688795,Set,2017_12_14_1917,
"[3.0, 3.0]",5,0,26,26,28,,,,,3,0,3,0,down,1.54213209712,ZVV,f,25,60.0050688795,Set,2017_12_14_1917,
"[3.0, 3.0]",5,0,26,26,28,,,,,4,0,4,0,left,0.492128504993,ZVV,f,25,60.0050688795,Set,2017_12_14_1917,
"[3.0, 3.0]",5,0,26,26,28,,,,,5,0,5,0,left,0.825478285784,ZVV,f,25,60.0050688795,Set,2017_12_14_1917,
"[3.0, 3.0]",5,0,26,26,28,,,,,6,0,6,0,left,1.24213699189,ZVV,f,25,60.0050688795,Set,2017_12_14_1917,
"[3.0, 3.0]",5,0,26,26,28,,,,,7,0,7,0,down,0.475477614731,ZVV,f,25,60.0050688795,Set,2017_12_14_1917,
"[3.0, 3.0]",5,0,26,26,28,,,,,8,0,8,0,left,0.558789303192,ZVV,f,25,60.0050688795,Set,2017_12_14_1917,
"[3.0, 3.0]",5,0,26,26,28,,,,,9,0,9,0,left,0.592130162884,ZVV,f,25,60.0050688795,Set,2017_12_14_1917,
"[3.0, 3.0]",5,0,26,26,28,,,,,10,0,10,0,down,0.458857514139,ZVV,f,25,60.0050688795,Set,2017_12_14_1917,
"[3.0, 3.0]",5,0,26,26,28,,,,,11,0,11,0,left,0.458791987432,ZVV,f,25,60.0050688795,Set,2017_12_14_1917,
"[3.0, 3.0]",5,0,26,26,28,,,,,12,0,12,0,left,0.592108057492,ZVV,f,25,60.0050688795,Set,2017_12_14_1917,
"[3.0, 3.0]",5,0,26,26,28,,,,,13,0,13,0,down,0.775456140924,ZVV,f,25,60.0050688795,Set,2017_12_14_1917,
"[3.0, 3.0]",5,0,26,26,28,,,,,14,0,14,0,down,0.80879423744,ZVV,f,25,60.0050688795,Set,2017_12_14_1917,
"[2.8, 2.8]",5,0,27,27,16,,,,,0,0,0,0,left,0.508795184825,ZVV,f,25,60.0050688795,Set,2017_12_14_1917,
"[2.8, 2.8]",5,0,27,27,16,,,,,1,0,1,0,left,0.842145360351,ZVV,f,25,60.0050688795,Set,2017_12_14_1917,
"[2.8, 2.8]",5,0,27,27,16,,,,,2,0,2,0,left,0.62545286458,ZVV,f,25,60.0050688795,Set,2017_12_14_1917,
"[2.8, 2.8]",5,0,27,27,16,,,,,3,0,3,0,down,0.508790053209,ZVV,f,25,60.0050688795,Set,2017_12_14_1917,
"[2.8, 2.8]",5,0,27,27,16,,,,,4,0,4,0,left,0.508801500633,ZVV,f,25,60.0050688795,Set,2017_12_14_1917,
"[2.8, 2.8]",5,0,27,27,16,,,,,5,0,5,0,down,0.458662907695,ZVV,f,25,60.0050688795,Set,2017_12_14_1917,
"[2.8, 2.8]",5,0,27,27,16,,,,,6,0,6,0,left,0.442129254996,ZVV,f,25,60.0050688795,Set,2017_12_14_1917,
"[2.8, 2.8]",5,0,27,27,16,,,,,7,0,7,0,left,2.02542515389,ZVV,f,25,60.0050688795,Set,2017_12_14_1917,
"[2.8, 2.8]",5,0,27,27,16,,,,,8,0,8,0,down,0.42545073299,ZVV,f,25,60.0050688795,Set,2017_12_14_1917,
"[2.8, 2.8]",5,0,27,27,16,,,,,9,0,9,0,down,0.525527786085,ZVV,f,25,60.0050688795,Set,2017_12_14_1917,
"[2.9, 2.9]",6,0,28,28,23,,,,,0,0,0,0,down,1.08358326906,ZVV,f,25,60.0050688795,Set,2017_12_14_1917,
"[2.9, 2.9]",6,0,28,28,23,,,,,1,0,1,0,down,0.525505285957,ZVV,f,25,60.0050688795,Set,2017_12_14_1917,
"[2.9, 2.9]",6,0,28,28,23,,,,,2,0,2,0,left,0.675403166926,ZVV,f,25,60.0050688795,Set,2017_12_14_1917,
"[2.9, 2.9]",6,0,28,28,23,,,,,3,0,3,0,left,0.675496720112,ZVV,f,25,60.0050688795,Set,2017_12_14_1917,
"[2.9, 2.9]",6,0,28,28,23,,,,,4,0,4,0,left,0.758804855926,ZVV,f,25,60.0050688795,Set,2017_12_14_1917,
"[2.9, 2.9]",6,0,28,28,23,,,,,5,0,5,0,down,0.725493206919,ZVV,f,25,60.0050688795,Set,2017_12_14_1917,
"[2.9, 2.9]",6,0,28,28,23,,,,,6,0,6,0,left,0.525450022455,ZVV,f,25,60.0050688795,Set,2017_12_14_1917,
"[2.9, 2.9]",6,0,28,28,23,,,,,7,0,7,0,down,1.06690395757,ZVV,f,25,60.0050688795,Set,2017_12_14_1917,
"[2.9, 2.9]",6,0,28,28,23,,,,,8,0,8,0,left,0.542138412944,ZVV,f,25,60.0050688795,Set,2017_12_14_1917,
"[2.9, 2.9]",6,0,28,28,23,,,,,9,0,9,0,left,0.94211188647,ZVV,f,25,60.0050688795,Set,2017_12_14_1917,
"[2.9, 2.9]",6,0,28,28,23,,,,,10,0,10,0,down,0.525462654128,ZVV,f,25,60.0050688795,Set,2017_12_14_1917,
"[2.9, 2.9]",6,0,28,28,23,,,,,11,0,11,0,down,0.62545168036,ZVV,f,25,60.0050688795,Set,2017_12_14_1917,
"[2.9, 2.9]",6,0,28,28,23,,,,,12,0,12,0,left,0.492124952332,ZVV,f,25,60.0050688795,Set,2017_12_14_1917,
"[2.9, 2.9]",6,0,28,28,23,,,,,13,0,13,0,down,0.658826882369,ZVV,f,25,60.0050688795,Set,2017_12_14_1917,
"[2.9, 2.9]",6,0,28,28,23,,,,,14,0,14,0,left,0.475481956862,ZVV,f,25,60.0050688795,Set,2017_12_14_1917,
"[2.9, 2.9]",6,0,28,28,23,,,,,15,0,15,0,down,1.40878365842,ZVV,f,25,60.0050688795,Set,2017_12_14_1917,
"[2.9, 2.9]",6,0,28,28,23,,,,,16,0,16,0,down,0.708791000579,ZVV,f,25,60.0050688795,Set,2017_12_14_1917,
"[2.8, 2.8]",6,0,29,29,17,,,,,0,0,0,0,left,0.516911023413,ZVV,f,25,60.0050688795,Set,2017_12_14_1917,
"[2.8, 2.8]",6,0,29,29,17,,,,,1,0,1,0,left,0.725473469967,ZVV,f,25,60.0050688795,Set,2017_12_14_1917,
"[2.8, 2.8]",6,0,29,29,17,,,,,2,0,2,0,left,0.408829842927,ZVV,f,25,60.0050688795,Set,2017_12_14_1917,
"[2.8, 2.8]",6,0,29,29,17,,,,,3,0,3,0,down,0.825487759532,ZVV,f,25,60.0050688795,Set,2017_12_14_1917,
"[2.8, 2.8]",6,0,29,29,17,,,,,4,0,4,0,down,0.82543604869,ZVV,f,25,60.0050688795,Set,2017_12_14_1917,
