number_of_fixational_trials,size,estimating_threshold.thisRepN,estimating_threshold.thisTrialN,estimating_threshold.thisN,estimating_threshold.thisIndex,trials_2.thisRepN,trials_2.thisTrialN,trials_2.thisN,trials_2.thisIndex,trials.thisRepN,trials.thisTrialN,trials.thisN,trials.thisIndex,trials_3.thisRepN,trials_3.thisTrialN,trials_3.thisN,trials_3.thisIndex,rating_up.response,rating_up.rt,rating_down.response,rating_down.rt,answer.keys,answer.rt,participant,gender,age,frameRate,expName,date,
,,0,0,0,0,,,,,,,,,,,,,0.26,60.151,0.16,26.859,,,AKS,f,19,60.0002368456,Set,2017_05_17_1623,
,,1,0,1,0,,,,,,,,,,,,,0.11,13.438,0.13,37.672,,,AKS,f,19,60.0002368456,Set,2017_05_17_1623,
,,2,0,2,0,,,,,,,,,,,,,0.1,18.838,0.22,23.033,,,AKS,f,19,60.0002368456,Set,2017_05_17_1623,
8,3,,,,,0,0,0,23,,,,,0,0,0,0,,,,,right,9.39200645161,AKS,f,19,60.0002368456,Set,2017_05_17_1623,
8,3,,,,,0,0,0,23,,,,,1,0,1,0,,,,,down,9.82536775881,AKS,f,19,60.0002368456,Set,2017_05_17_1623,
8,3,,,,,0,0,0,23,,,,,2,0,2,0,,,,,down,0.992137189256,AKS,f,19,60.0002368456,Set,2017_05_17_1623,
1,1,,,,,0,1,1,0,,,,,0,0,0,0,,,,,down,2.1335497557,AKS,f,19,60.0002368456,Set,2017_05_17_1623,
1,1,,,,,0,1,1,0,,,,,1,0,1,0,,,,,down,0.675473430514,AKS,f,19,60.0002368456,Set,2017_05_17_1623,
6,3,,,,,0,2,2,21,,,,,0,0,0,0,,,,,right,3.25023783039,AKS,f,19,60.0002368456,Set,2017_05_17_1623,
6,3,,,,,0,2,2,21,,,,,1,0,1,0,,,,,down,0.825451443525,AKS,f,19,60.0002368456,Set,2017_05_17_1623,
6,3,,,,,0,2,2,21,,,,,2,0,2,0,,,,,down,0.542114333832,AKS,f,19,60.0002368456,Set,2017_05_17_1623,
8,1,,,,,0,3,3,7,,,,,0,0,0,0,,,,,down,0.466912168165,AKS,f,19,60.0002368456,Set,2017_05_17_1623,
8,1,,,,,0,3,3,7,,,,,1,0,1,0,,,,,down,0.492137583991,AKS,f,19,60.0002368456,Set,2017_05_17_1623,
3,3,,,,,0,4,4,18,,,,,0,0,0,0,,,,,right,0.583587216446,AKS,f,19,60.0002368456,Set,2017_05_17_1623,
3,3,,,,,0,4,4,18,,,,,1,0,1,0,,,,,down,0.558778250503,AKS,f,19,60.0002368456,Set,2017_05_17_1623,
3,3,,,,,0,4,4,18,,,,,2,0,2,0,,,,,down,0.392157242022,AKS,f,19,60.0002368456,Set,2017_05_17_1623,
3,1,,,,,0,5,5,2,,,,,0,0,0,0,,,,,down,1.57544848297,AKS,f,19,60.0002368456,Set,2017_05_17_1623,
3,1,,,,,0,5,5,2,,,,,1,0,1,0,,,,,down,0.875449904037,AKS,f,19,60.0002368456,Set,2017_05_17_1623,
1,3,,,,,0,6,6,16,,,,,0,0,0,0,,,,,right,2.2421069917,AKS,f,19,60.0002368456,Set,2017_05_17_1623,
1,3,,,,,0,6,6,16,,,,,1,0,1,0,,,,,down,0.458795540093,AKS,f,19,60.0002368456,Set,2017_05_17_1623,
1,3,,,,,0,6,6,16,,,,,2,0,2,0,,,,,down,0.442186492175,AKS,f,19,60.0002368456,Set,2017_05_17_1623,
2,3,,,,,0,7,7,17,,,,,0,0,0,0,,,,,down,9.58347945262,AKS,f,19,60.0002368456,Set,2017_05_17_1623,
2,3,,,,,0,7,7,17,,,,,1,0,1,0,,,,,down,0.642093491624,AKS,f,19,60.0002368456,Set,2017_05_17_1623,
6,2,,,,,0,8,8,13,,,,,0,0,0,0,,,,,down,0.816906523396,AKS,f,19,60.0002368456,Set,2017_05_17_1623,
6,2,,,,,0,8,8,13,,,,,1,0,1,0,,,,,down,1.24211330753,AKS,f,19,60.0002368456,Set,2017_05_17_1623,
2,2,,,,,0,9,9,9,,,,,0,0,0,0,,,,,down,0.492150215636,AKS,f,19,60.0002368456,Set,2017_05_17_1623,
2,2,,,,,0,9,9,9,,,,,1,0,1,0,,,,,left,5.20874955296,AKS,f,19,60.0002368456,Set,2017_05_17_1623,
2,2,,,,,0,9,9,9,,,,,2,0,2,0,,,,,down,0.692108136456,AKS,f,19,60.0002368456,Set,2017_05_17_1623,
2,2,,,,,0,9,9,9,,,,,3,0,3,0,,,,,down,0.625444180332,AKS,f,19,60.0002368456,Set,2017_05_17_1623,
5,1,,,,,0,10,10,4,,,,,0,0,0,0,,,,,down,0.575495456927,AKS,f,19,60.0002368456,Set,2017_05_17_1623,
5,1,,,,,0,10,10,4,,,,,1,0,1,0,,,,,down,0.442343598406,AKS,f,19,60.0002368456,Set,2017_05_17_1623,
4,3,,,,,0,11,11,19,,,,,0,0,0,0,,,,,left,2.27541627228,AKS,f,19,60.0002368456,Set,2017_05_17_1623,
4,3,,,,,0,11,11,19,,,,,1,0,1,0,,,,,down,0.642148360377,AKS,f,19,60.0002368456,Set,2017_05_17_1623,
4,3,,,,,0,11,11,19,,,,,2,0,2,0,,,,,down,0.525449627719,AKS,f,19,60.0002368456,Set,2017_05_17_1623,
4,1,,,,,0,12,12,3,,,,,0,0,0,0,,,,,left,1.76686779945,AKS,f,19,60.0002368456,Set,2017_05_17_1623,
4,1,,,,,0,12,12,3,,,,,1,0,1,0,,,,,down,0.45878527686,AKS,f,19,60.0002368456,Set,2017_05_17_1623,
4,1,,,,,0,12,12,3,,,,,2,0,2,0,,,,,down,1.05879522429,AKS,f,19,60.0002368456,Set,2017_05_17_1623,
4,2,,,,,0,13,13,11,,,,,0,0,0,0,,,,,down,1.68355453204,AKS,f,19,60.0002368456,Set,2017_05_17_1623,
4,2,,,,,0,13,13,11,,,,,1,0,1,0,,,,,down,0.858876777405,AKS,f,19,60.0002368456,Set,2017_05_17_1623,
2,1,,,,,0,14,14,1,,,,,0,0,0,0,,,,,down,1.37548187791,AKS,f,19,60.0002368456,Set,2017_05_17_1623,
2,1,,,,,0,14,14,1,,,,,1,0,1,0,,,,,left,3.35882664553,AKS,f,19,60.0002368456,Set,2017_05_17_1623,
2,1,,,,,0,14,14,1,,,,,2,0,2,0,,,,,left,0.983608058683,AKS,f,19,60.0002368456,Set,2017_05_17_1623,
2,1,,,,,0,14,14,1,,,,,3,0,3,0,,,,,down,0.325627497194,AKS,f,19,60.0002368456,Set,2017_05_17_1623,
2,1,,,,,0,14,14,1,,,,,4,0,4,0,,,,,down,0.400225317164,AKS,f,19,60.0002368456,Set,2017_05_17_1623,
2,1,,,,,0,14,14,1,,,,,5,0,5,0,,,,,left,0.850278172729,AKS,f,19,60.0002368456,Set,2017_05_17_1623,
2,1,,,,,0,14,14,1,,,,,6,0,6,0,,,,,left,0.908845237747,AKS,f,19,60.0002368456,Set,2017_05_17_1623,
2,1,,,,,0,14,14,1,,,,,7,0,7,0,,,,,down,1.31698073435,AKS,f,19,60.0002368456,Set,2017_05_17_1623,
2,1,,,,,0,14,14,1,,,,,8,0,8,0,,,,,down,0.450282593811,AKS,f,19,60.0002368456,Set,2017_05_17_1623,
2,1,,,,,0,14,14,1,,,,,9,0,9,0,,,,,left,0.816936918302,AKS,f,19,60.0002368456,Set,2017_05_17_1623,
2,1,,,,,0,14,14,1,,,,,10,0,10,0,,,,,left,2.73354628199,AKS,f,19,60.0002368456,Set,2017_05_17_1623,
2,1,,,,,0,14,14,1,,,,,11,0,11,0,,,,,left,1.24209949165,AKS,f,19,60.0002368456,Set,2017_05_17_1623,
2,1,,,,,0,14,14,1,,,,,12,0,12,0,,,,,left,0.625466680445,AKS,f,19,60.0002368456,Set,2017_05_17_1623,
2,1,,,,,0,14,14,1,,,,,13,0,13,0,,,,,left,0.492133241874,AKS,f,19,60.0002368456,Set,2017_05_17_1623,
2,1,,,,,0,14,14,1,,,,,14,0,14,0,,,,,left,1.14211322856,AKS,f,19,60.0002368456,Set,2017_05_17_1623,
2,1,,,,,0,14,14,1,,,,,15,0,15,0,,,,,left,0.508613604761,AKS,f,19,60.0002368456,Set,2017_05_17_1623,
2,1,,,,,0,14,14,1,,,,,16,0,16,0,,,,,down,0.525457917247,AKS,f,19,60.0002368456,Set,2017_05_17_1623,
2,1,,,,,0,14,14,1,,,,,17,0,17,0,,,,,down,0.475435772358,AKS,f,19,60.0002368456,Set,2017_05_17_1623,
7,2,,,,,0,15,15,14,,,,,0,0,0,0,,,,,down,1.34204035971,AKS,f,19,60.0002368456,Set,2017_05_17_1623,
7,2,,,,,0,15,15,14,,,,,1,0,1,0,,,,,down,0.608631841722,AKS,f,19,60.0002368456,Set,2017_05_17_1623,
3,2,,,,,0,16,16,10,,,,,0,0,0,0,,,,,down,0.342129176046,AKS,f,19,60.0002368456,Set,2017_05_17_1623,
3,2,,,,,0,16,16,10,,,,,1,0,1,0,,,,,down,0.392158031464,AKS,f,19,60.0002368456,Set,2017_05_17_1623,
5,3,,,,,0,17,17,20,,,,,0,0,0,0,,,,,down,0.47548985164,AKS,f,19,60.0002368456,Set,2017_05_17_1623,
5,3,,,,,0,17,17,20,,,,,1,0,1,0,,,,,down,0.542128149711,AKS,f,19,60.0002368456,Set,2017_05_17_1623,
6,1,,,,,0,18,18,5,,,,,0,0,0,0,,,,,down,0.475447614561,AKS,f,19,60.0002368456,Set,2017_05_17_1623,
6,1,,,,,0,18,18,5,,,,,1,0,1,0,,,,,down,0.375411219604,AKS,f,19,60.0002368456,Set,2017_05_17_1623,
7,3,,,,,0,19,19,22,,,,,0,0,0,0,,,,,down,0.608777500514,AKS,f,19,60.0002368456,Set,2017_05_17_1623,
7,3,,,,,0,19,19,22,,,,,1,0,1,0,,,,,down,0.692097478488,AKS,f,19,60.0002368456,Set,2017_05_17_1623,
1,2,,,,,0,20,20,8,,,,,0,0,0,0,,,,,down,0.375460562005,AKS,f,19,60.0002368456,Set,2017_05_17_1623,
1,2,,,,,0,20,20,8,,,,,1,0,1,0,,,,,down,0.375444377685,AKS,f,19,60.0002368456,Set,2017_05_17_1623,
5,2,,,,,0,21,21,12,,,,,0,0,0,0,,,,,down,0.333590571739,AKS,f,19,60.0002368456,Set,2017_05_17_1623,
5,2,,,,,0,21,21,12,,,,,1,0,1,0,,,,,down,0.275491667446,AKS,f,19,60.0002368456,Set,2017_05_17_1623,
8,2,,,,,0,22,22,15,,,,,0,0,0,0,,,,,left,1.17544224611,AKS,f,19,60.0002368456,Set,2017_05_17_1623,
8,2,,,,,0,22,22,15,,,,,1,0,1,0,,,,,left,0.475456298824,AKS,f,19,60.0002368456,Set,2017_05_17_1623,
8,2,,,,,0,22,22,15,,,,,2,0,2,0,,,,,left,0.425438496051,AKS,f,19,60.0002368456,Set,2017_05_17_1623,
8,2,,,,,0,22,22,15,,,,,3,0,3,0,,,,,left,0.342191939591,AKS,f,19,60.0002368456,Set,2017_05_17_1623,
8,2,,,,,0,22,22,15,,,,,4,0,4,0,,,,,left,0.175472641014,AKS,f,19,60.0002368456,Set,2017_05_17_1623,
8,2,,,,,0,22,22,15,,,,,5,0,5,0,,,,,left,0.108798026951,AKS,f,19,60.0002368456,Set,2017_05_17_1623,
8,2,,,,,0,22,22,15,,,,,6,0,6,0,,,,,left,0.0921139785787,AKS,f,19,60.0002368456,Set,2017_05_17_1623,
8,2,,,,,0,22,22,15,,,,,7,0,7,0,,,,,left,0.108751447697,AKS,f,19,60.0002368456,Set,2017_05_17_1623,
8,2,,,,,0,22,22,15,,,,,8,0,8,0,,,,,left,0.125479706854,AKS,f,19,60.0002368456,Set,2017_05_17_1623,
8,2,,,,,0,22,22,15,,,,,9,0,9,0,,,,,left,0.142103360093,AKS,f,19,60.0002368456,Set,2017_05_17_1623,
8,2,,,,,0,22,22,15,,,,,10,0,10,0,,,,,left,0.225448996149,AKS,f,19,60.0002368456,Set,2017_05_17_1623,
8,2,,,,,0,22,22,15,,,,,11,0,11,0,,,,,left,0.225460838294,AKS,f,19,60.0002368456,Set,2017_05_17_1623,
8,2,,,,,0,22,22,15,,,,,12,0,12,0,,,,,left,0.208784290007,AKS,f,19,60.0002368456,Set,2017_05_17_1623,
8,2,,,,,0,22,22,15,,,,,13,0,13,0,,,,,left,0.158773592586,AKS,f,19,60.0002368456,Set,2017_05_17_1623,
8,2,,,,,0,22,22,15,,,,,14,0,14,0,,,,,left,0.0921420050727,AKS,f,19,60.0002368456,Set,2017_05_17_1623,
8,2,,,,,0,22,22,15,,,,,15,0,15,0,,,,,left,0.175441061903,AKS,f,19,60.0002368456,Set,2017_05_17_1623,
8,2,,,,,0,22,22,15,,,,,16,0,16,0,,,,,left,0.292118083889,AKS,f,19,60.0002368456,Set,2017_05_17_1623,
8,2,,,,,0,22,22,15,,,,,17,0,17,0,,,,,left,0.458791592682,AKS,f,19,60.0002368456,Set,2017_05_17_1623,
8,2,,,,,0,22,22,15,,,,,18,0,18,0,,,,,left,0.308819106023,AKS,f,19,60.0002368456,Set,2017_05_17_1623,
8,2,,,,,0,22,22,15,,,,,19,0,19,0,,,,,left,0.159019120387,AKS,f,19,60.0002368456,Set,2017_05_17_1623,
8,2,,,,,0,22,22,15,,,,,20,0,20,0,,,,,left,0.292173347378,AKS,f,19,60.0002368456,Set,2017_05_17_1623,
8,2,,,,,0,22,22,15,,,,,21,0,21,0,,,,,left,0.283642243099,AKS,f,19,60.0002368456,Set,2017_05_17_1623,
8,2,,,,,0,22,22,15,,,,,22,0,22,0,,,,,left,0.308793842705,AKS,f,19,60.0002368456,Set,2017_05_17_1623,
8,2,,,,,0,22,22,15,,,,,23,0,23,0,,,,,left,0.258754724055,AKS,f,19,60.0002368456,Set,2017_05_17_1623,
8,2,,,,,0,22,22,15,,,,,24,0,24,0,,,,,left,0.27547587789,AKS,f,19,60.0002368456,Set,2017_05_17_1623,
8,2,,,,,0,22,22,15,,,,,25,0,25,0,,,,,left,0.358823487622,AKS,f,19,60.0002368456,Set,2017_05_17_1623,
8,2,,,,,0,22,22,15,,,,,26,0,26,0,,,,,left,0.942091360019,AKS,f,19,60.0002368456,Set,2017_05_17_1623,
8,2,,,,,0,22,22,15,,,,,27,0,27,0,,,,,left,0.558769960975,AKS,f,19,60.0002368456,Set,2017_05_17_1623,
8,2,,,,,0,22,22,15,,,,,28,0,28,0,,,,,left,0.358790329512,AKS,f,19,60.0002368456,Set,2017_05_17_1623,
8,2,,,,,0,22,22,15,,,,,29,0,29,0,,,,,left,0.308778447856,AKS,f,19,60.0002368456,Set,2017_05_17_1623,
8,2,,,,,0,22,22,15,,,,,30,0,30,0,,,,,down,0.508824790246,AKS,f,19,60.0002368456,Set,2017_05_17_1623,
8,2,,,,,0,22,22,15,,,,,31,0,31,0,,,,,down,0.708807974384,AKS,f,19,60.0002368456,Set,2017_05_17_1623,
7,1,,,,,0,23,23,6,,,,,0,0,0,0,,,,,down,0.658792934817,AKS,f,19,60.0002368456,Set,2017_05_17_1623,
7,1,,,,,0,23,23,6,,,,,1,0,1,0,,,,,down,0.500238422508,AKS,f,19,60.0002368456,Set,2017_05_17_1623,
