number_of_fixational_trials,size,trials_2.thisRepN,trials_2.thisTrialN,trials_2.thisN,trials_2.thisIndex,trials.thisRepN,trials.thisTrialN,trials.thisN,trials.thisIndex,trials_3.thisRepN,trials_3.thisTrialN,trials_3.thisN,trials_3.thisIndex,key_resp_3.keys,key_resp_3.rt,key_resp_2.keys,key_resp_2.rt,key_resp_4.keys,key_resp_4.rt,participant,gender,age,frameRate,expName,date,
,,,,,,,,,,,,,,space,17.7002483305,,,,,DMA,f,19,59.9979395196,Set,2017_03_08_2349,
8,"[2.8, 2.8]",0,0,0,27,0,0,0,0,,,,,,,,,,,DMA,f,19,59.9979395196,Set,2017_03_08_2349,
8,"[2.8, 2.8]",0,0,0,27,1,0,1,0,,,,,,,,,,,DMA,f,19,59.9979395196,Set,2017_03_08_2349,
8,"[2.8, 2.8]",0,0,0,27,2,0,2,0,,,,,,,,,,,DMA,f,19,59.9979395196,Set,2017_03_08_2349,
8,"[2.8, 2.8]",0,0,0,27,3,0,3,0,,,,,,,,,,,DMA,f,19,59.9979395196,Set,2017_03_08_2349,
8,"[2.8, 2.8]",0,0,0,27,4,0,4,0,,,,,,,,,,,DMA,f,19,59.9979395196,Set,2017_03_08_2349,
8,"[2.8, 2.8]",0,0,0,27,5,0,5,0,,,,,,,,,,,DMA,f,19,59.9979395196,Set,2017_03_08_2349,
8,"[2.8, 2.8]",0,0,0,27,6,0,6,0,,,,,,,,,,,DMA,f,19,59.9979395196,Set,2017_03_08_2349,
8,"[2.8, 2.8]",0,0,0,27,7,0,7,0,,,,,,,,,,,DMA,f,19,59.9979395196,Set,2017_03_08_2349,
8,"[2.8, 2.8]",0,0,0,27,,,,,0,0,0,0,,,right,11.2087717408,,,DMA,f,19,59.9979395196,Set,2017_03_08_2349,
8,"[2.8, 2.8]",0,0,0,27,,,,,1,0,1,0,,,right,1.62548548006,,,DMA,f,19,59.9979395196,Set,2017_03_08_2349,
8,"[2.8, 2.8]",0,0,0,27,,,,,2,0,2,0,,,right,0.716913832817,,,DMA,f,19,59.9979395196,Set,2017_03_08_2349,
8,"[2.8, 2.8]",0,0,0,27,,,,,3,0,3,0,,,right,0.425287478836,,,DMA,f,19,59.9979395196,Set,2017_03_08_2349,
8,"[2.8, 2.8]",0,0,0,27,,,,,4,0,4,0,,,right,0.400278370129,,,DMA,f,19,59.9979395196,Set,2017_03_08_2349,
8,"[2.8, 2.8]",0,0,0,27,,,,,5,0,5,0,,,right,0.466981037054,,,DMA,f,19,59.9979395196,Set,2017_03_08_2349,
8,"[2.8, 2.8]",0,0,0,27,,,,,6,0,6,0,,,right,0.275425854721,,,DMA,f,19,59.9979395196,Set,2017_03_08_2349,
8,"[2.8, 2.8]",0,0,0,27,,,,,7,0,7,0,,,right,0.266941326321,,,DMA,f,19,59.9979395196,Set,2017_03_08_2349,
8,"[2.8, 2.8]",0,0,0,27,,,,,8,0,8,0,,,right,0.266859220457,,,DMA,f,19,59.9979395196,Set,2017_03_08_2349,
8,"[2.8, 2.8]",0,0,0,27,,,,,9,0,9,0,,,right,0.266929484089,,,DMA,f,19,59.9979395196,Set,2017_03_08_2349,
8,"[2.8, 2.8]",0,0,0,27,,,,,10,0,10,0,,,right,0.42548563797,,,DMA,f,19,59.9979395196,Set,2017_03_08_2349,
8,"[2.8, 2.8]",0,0,0,27,,,,,11,0,11,0,,,right,0.466992089874,,,DMA,f,19,59.9979395196,Set,2017_03_08_2349,
8,"[2.8, 2.8]",0,0,0,27,,,,,12,0,12,0,,,down,0.7087881224,,,DMA,f,19,59.9979395196,Set,2017_03_08_2349,
8,"[2.8, 2.8]",0,0,0,27,,,,,13,0,13,0,,,down,0.383597078384,,,DMA,f,19,59.9979395196,Set,2017_03_08_2349,
8,"[2.8, 2.8]",0,0,0,27,,,,,14,0,14,0,,,down,0.733599466621,space,2.79213379137,DMA,f,19,59.9979395196,Set,2017_03_08_2349,
4,"[2.6, 2.6]",0,1,1,3,0,0,0,0,14,0,14,0,,,,,,,DMA,f,19,59.9979395196,Set,2017_03_08_2349,
4,"[2.6, 2.6]",0,1,1,3,1,0,1,0,14,0,14,0,,,,,,,DMA,f,19,59.9979395196,Set,2017_03_08_2349,
4,"[2.6, 2.6]",0,1,1,3,2,0,2,0,14,0,14,0,,,,,,,DMA,f,19,59.9979395196,Set,2017_03_08_2349,
4,"[2.6, 2.6]",0,1,1,3,3,0,3,0,14,0,14,0,,,,,,,DMA,f,19,59.9979395196,Set,2017_03_08_2349,
4,"[2.6, 2.6]",0,1,1,3,,,,,0,0,0,0,,,right,0.692166041583,,,DMA,f,19,59.9979395196,Set,2017_03_08_2349,
4,"[2.6, 2.6]",0,1,1,3,,,,,1,0,1,0,,,right,0.842224640655,,,DMA,f,19,59.9979395196,Set,2017_03_08_2349,
4,"[2.6, 2.6]",0,1,1,3,,,,,2,0,2,0,,,right,0.683586775791,,,DMA,f,19,59.9979395196,Set,2017_03_08_2349,
4,"[2.6, 2.6]",0,1,1,3,,,,,3,0,3,0,,,down,0.75879489223,,,DMA,f,19,59.9979395196,Set,2017_03_08_2349,
4,"[2.6, 2.6]",0,1,1,3,,,,,4,0,4,0,,,down,0.592180133797,,,DMA,f,19,59.9979395196,Set,2017_03_08_2349,
4,"[2.6, 2.6]",0,1,1,3,,,,,5,0,5,0,,,down,0.483616933809,space,1.97546971019,DMA,f,19,59.9979395196,Set,2017_03_08_2349,
6,"[2.9, 2.9]",0,2,2,35,0,0,0,0,5,0,5,0,,,,,,,DMA,f,19,59.9979395196,Set,2017_03_08_2349,
6,"[2.9, 2.9]",0,2,2,35,1,0,1,0,5,0,5,0,,,,,,,DMA,f,19,59.9979395196,Set,2017_03_08_2349,
6,"[2.9, 2.9]",0,2,2,35,2,0,2,0,5,0,5,0,,,,,,,DMA,f,19,59.9979395196,Set,2017_03_08_2349,
6,"[2.9, 2.9]",0,2,2,35,3,0,3,0,5,0,5,0,,,,,,,DMA,f,19,59.9979395196,Set,2017_03_08_2349,
6,"[2.9, 2.9]",0,2,2,35,4,0,4,0,5,0,5,0,,,,,,,DMA,f,19,59.9979395196,Set,2017_03_08_2349,
6,"[2.9, 2.9]",0,2,2,35,5,0,5,0,5,0,5,0,,,,,,,DMA,f,19,59.9979395196,Set,2017_03_08_2349,
6,"[2.9, 2.9]",0,2,2,35,,,,,0,0,0,0,,,right,2.06693240523,,,DMA,f,19,59.9979395196,Set,2017_03_08_2349,
6,"[2.9, 2.9]",0,2,2,35,,,,,1,0,1,0,,,down,0.783616499626,,,DMA,f,19,59.9979395196,Set,2017_03_08_2349,
6,"[2.9, 2.9]",0,2,2,35,,,,,2,0,2,0,,,down,0.558823076659,,,DMA,f,19,59.9979395196,Set,2017_03_08_2349,
6,"[2.9, 2.9]",0,2,2,35,,,,,3,0,3,0,,,down,0.842172929784,space,1.60882432002,DMA,f,19,59.9979395196,Set,2017_03_08_2349,
3,"[2.9, 2.9]",0,3,3,32,0,0,0,0,3,0,3,0,,,,,,,DMA,f,19,59.9979395196,Set,2017_03_08_2349,
3,"[2.9, 2.9]",0,3,3,32,1,0,1,0,3,0,3,0,,,,,,,DMA,f,19,59.9979395196,Set,2017_03_08_2349,
3,"[2.9, 2.9]",0,3,3,32,2,0,2,0,3,0,3,0,,,,,,,DMA,f,19,59.9979395196,Set,2017_03_08_2349,
3,"[2.9, 2.9]",0,3,3,32,,,,,0,0,0,0,,,down,0.858800931717,,,DMA,f,19,59.9979395196,Set,2017_03_08_2349,
3,"[2.9, 2.9]",0,3,3,32,,,,,1,0,1,0,,,down,0.50024809374,,,DMA,f,19,59.9979395196,Set,2017_03_08_2349,
3,"[2.9, 2.9]",0,3,3,32,,,,,2,0,2,0,,,down,0.458813484409,space,1.44215153495,DMA,f,19,59.9979395196,Set,2017_03_08_2349,
7,"[2.6, 2.6]",0,4,4,6,0,0,0,0,2,0,2,0,,,,,,,DMA,f,19,59.9979395196,Set,2017_03_08_2349,
7,"[2.6, 2.6]",0,4,4,6,1,0,1,0,2,0,2,0,,,,,,,DMA,f,19,59.9979395196,Set,2017_03_08_2349,
7,"[2.6, 2.6]",0,4,4,6,2,0,2,0,2,0,2,0,,,,,,,DMA,f,19,59.9979395196,Set,2017_03_08_2349,
7,"[2.6, 2.6]",0,4,4,6,3,0,3,0,2,0,2,0,,,,,,,DMA,f,19,59.9979395196,Set,2017_03_08_2349,
7,"[2.6, 2.6]",0,4,4,6,4,0,4,0,2,0,2,0,,,,,,,DMA,f,19,59.9979395196,Set,2017_03_08_2349,
7,"[2.6, 2.6]",0,4,4,6,5,0,5,0,2,0,2,0,,,,,,,DMA,f,19,59.9979395196,Set,2017_03_08_2349,
7,"[2.6, 2.6]",0,4,4,6,6,0,6,0,2,0,2,0,,,,,,,DMA,f,19,59.9979395196,Set,2017_03_08_2349,
7,"[2.6, 2.6]",0,4,4,6,,,,,0,0,0,0,,,down,0.750249968725,,,DMA,f,19,59.9979395196,Set,2017_03_08_2349,
7,"[2.6, 2.6]",0,4,4,6,,,,,1,0,1,0,,,down,0.442142061191,,,DMA,f,19,59.9979395196,Set,2017_03_08_2349,
7,"[2.6, 2.6]",0,4,4,6,,,,,2,0,2,0,,,down,0.342108784593,space,1.23341966281,DMA,f,19,59.9979395196,Set,2017_03_08_2349,
4,"[2.8, 2.8]",0,5,5,23,0,0,0,0,2,0,2,0,,,,,,,DMA,f,19,59.9979395196,Set,2017_03_08_2349,
4,"[2.8, 2.8]",0,5,5,23,1,0,1,0,2,0,2,0,,,,,,,DMA,f,19,59.9979395196,Set,2017_03_08_2349,
4,"[2.8, 2.8]",0,5,5,23,2,0,2,0,2,0,2,0,,,,,,,DMA,f,19,59.9979395196,Set,2017_03_08_2349,
4,"[2.8, 2.8]",0,5,5,23,3,0,3,0,2,0,2,0,,,,,,,DMA,f,19,59.9979395196,Set,2017_03_08_2349,
4,"[2.8, 2.8]",0,5,5,23,,,,,0,0,0,0,,,right,1.18356526247,,,DMA,f,19,59.9979395196,Set,2017_03_08_2349,
4,"[2.8, 2.8]",0,5,5,23,,,,,1,0,1,0,,,down,0.575454236474,,,DMA,f,19,59.9979395196,Set,2017_03_08_2349,
4,"[2.8, 2.8]",0,5,5,23,,,,,2,0,2,0,,,down,0.475481355097,,,DMA,f,19,59.9979395196,Set,2017_03_08_2349,
4,"[2.8, 2.8]",0,5,5,23,,,,,3,0,3,0,,,down,0.325479203835,space,1.15884233988,DMA,f,19,59.9979395196,Set,2017_03_08_2349,
1,"[2.7, 2.7]",0,6,6,10,0,0,0,0,3,0,3,0,,,,,,,DMA,f,19,59.9979395196,Set,2017_03_08_2349,
1,"[2.7, 2.7]",0,6,6,10,,,,,0,0,0,0,,,down,1.59213473881,,,DMA,f,19,59.9979395196,Set,2017_03_08_2349,
1,"[2.7, 2.7]",0,6,6,10,,,,,1,0,1,0,,,down,0.375456762849,,,DMA,f,19,59.9979395196,Set,2017_03_08_2349,
1,"[2.7, 2.7]",0,6,6,10,,,,,2,0,2,0,,,down,0.308792385622,space,1.17552363162,DMA,f,19,59.9979395196,Set,2017_03_08_2349,
3,"[2.6, 2.6]",0,7,7,2,0,0,0,0,2,0,2,0,,,,,,,DMA,f,19,59.9979395196,Set,2017_03_08_2349,
3,"[2.6, 2.6]",0,7,7,2,1,0,1,0,2,0,2,0,,,,,,,DMA,f,19,59.9979395196,Set,2017_03_08_2349,
3,"[2.6, 2.6]",0,7,7,2,2,0,2,0,2,0,2,0,,,,,,,DMA,f,19,59.9979395196,Set,2017_03_08_2349,
3,"[2.6, 2.6]",0,7,7,2,,,,,0,0,0,0,,,down,1.35028304777,,,DMA,f,19,59.9979395196,Set,2017_03_08_2349,
3,"[2.6, 2.6]",0,7,7,2,,,,,1,0,1,0,,,down,0.233619400999,,,DMA,f,19,59.9979395196,Set,2017_03_08_2349,
3,"[2.6, 2.6]",0,7,7,2,,,,,2,0,2,0,,,down,0.225471190526,space,1.10883162275,DMA,f,19,59.9979395196,Set,2017_03_08_2349,
6,"[2.8, 2.8]",0,8,8,25,0,0,0,0,2,0,2,0,,,,,,,DMA,f,19,59.9979395196,Set,2017_03_08_2349,
6,"[2.8, 2.8]",0,8,8,25,1,0,1,0,2,0,2,0,,,,,,,DMA,f,19,59.9979395196,Set,2017_03_08_2349,
6,"[2.8, 2.8]",0,8,8,25,2,0,2,0,2,0,2,0,,,,,,,DMA,f,19,59.9979395196,Set,2017_03_08_2349,
6,"[2.8, 2.8]",0,8,8,25,3,0,3,0,2,0,2,0,,,,,,,DMA,f,19,59.9979395196,Set,2017_03_08_2349,
6,"[2.8, 2.8]",0,8,8,25,4,0,4,0,2,0,2,0,,,,,,,DMA,f,19,59.9979395196,Set,2017_03_08_2349,
6,"[2.8, 2.8]",0,8,8,25,5,0,5,0,2,0,2,0,,,,,,,DMA,f,19,59.9979395196,Set,2017_03_08_2349,
6,"[2.8, 2.8]",0,8,8,25,,,,,0,0,0,0,,,right,1.90875756962,,,DMA,f,19,59.9979395196,Set,2017_03_08_2349,
6,"[2.8, 2.8]",0,8,8,25,,,,,1,0,1,0,,,right,1.72544533515,,,DMA,f,19,59.9979395196,Set,2017_03_08_2349,
6,"[2.8, 2.8]",0,8,8,25,,,,,2,0,2,0,,,right,1.73361565091,,,DMA,f,19,59.9979395196,Set,2017_03_08_2349,
6,"[2.8, 2.8]",0,8,8,25,,,,,3,0,3,0,,,right,1.05880866863,,,DMA,f,19,59.9979395196,Set,2017_03_08_2349,
6,"[2.8, 2.8]",0,8,8,25,,,,,4,0,4,0,,,down,0.608829846373,,,DMA,f,19,59.9979395196,Set,2017_03_08_2349,
6,"[2.8, 2.8]",0,8,8,25,,,,,5,0,5,0,,,down,0.258791142143,,,DMA,f,19,59.9979395196,Set,2017_03_08_2349,
6,"[2.8, 2.8]",0,8,8,25,,,,,6,0,6,0,,,down,0.292151751928,space,2.05878695799,DMA,f,19,59.9979395196,Set,2017_03_08_2349,
9,"[2.9, 2.9]",0,9,9,38,0,0,0,0,6,0,6,0,,,,,,,DMA,f,19,59.9979395196,Set,2017_03_08_2349,
9,"[2.9, 2.9]",0,9,9,38,1,0,1,0,6,0,6,0,,,,,,,DMA,f,19,59.9979395196,Set,2017_03_08_2349,
9,"[2.9, 2.9]",0,9,9,38,2,0,2,0,6,0,6,0,,,,,,,DMA,f,19,59.9979395196,Set,2017_03_08_2349,
9,"[2.9, 2.9]",0,9,9,38,3,0,3,0,6,0,6,0,,,,,,,DMA,f,19,59.9979395196,Set,2017_03_08_2349,
9,"[2.9, 2.9]",0,9,9,38,4,0,4,0,6,0,6,0,,,,,,,DMA,f,19,59.9979395196,Set,2017_03_08_2349,
9,"[2.9, 2.9]",0,9,9,38,5,0,5,0,6,0,6,0,,,,,,,DMA,f,19,59.9979395196,Set,2017_03_08_2349,
9,"[2.9, 2.9]",0,9,9,38,6,0,6,0,6,0,6,0,,,,,,,DMA,f,19,59.9979395196,Set,2017_03_08_2349,
9,"[2.9, 2.9]",0,9,9,38,7,0,7,0,6,0,6,0,,,,,,,DMA,f,19,59.9979395196,Set,2017_03_08_2349,
9,"[2.9, 2.9]",0,9,9,38,8,0,8,0,6,0,6,0,,,,,,,DMA,f,19,59.9979395196,Set,2017_03_08_2349,
9,"[2.9, 2.9]",0,9,9,38,,,,,0,0,0,0,,,right,1.88360319694,,,DMA,f,19,59.9979395196,Set,2017_03_08_2349,
9,"[2.9, 2.9]",0,9,9,38,,,,,1,0,1,0,,,right,1.57547121029,,,DMA,f,19,59.9979395196,Set,2017_03_08_2349,
9,"[2.9, 2.9]",0,9,9,38,,,,,2,0,2,0,,,left,2.45882453711,,,DMA,f,19,59.9979395196,Set,2017_03_08_2349,
9,"[2.9, 2.9]",0,9,9,38,,,,,3,0,3,0,,,down,1.50879301713,,,DMA,f,19,59.9979395196,Set,2017_03_08_2349,
9,"[2.9, 2.9]",0,9,9,38,,,,,4,0,4,0,,,down,0.608831030666,,,DMA,f,19,59.9979395196,Set,2017_03_08_2349,
9,"[2.9, 2.9]",0,9,9,38,,,,,5,0,5,0,,,down,0.383610104909,space,1.22547513794,DMA,f,19,59.9979395196,Set,2017_03_08_2349,
4,"[2.9, 2.9]",0,10,10,33,0,0,0,0,5,0,5,0,,,,,,,DMA,f,19,59.9979395196,Set,2017_03_08_2349,
4,"[2.9, 2.9]",0,10,10,33,1,0,1,0,5,0,5,0,,,,,,,DMA,f,19,59.9979395196,Set,2017_03_08_2349,
4,"[2.9, 2.9]",0,10,10,33,2,0,2,0,5,0,5,0,,,,,,,DMA,f,19,59.9979395196,Set,2017_03_08_2349,
4,"[2.9, 2.9]",0,10,10,33,3,0,3,0,5,0,5,0,,,,,,,DMA,f,19,59.9979395196,Set,2017_03_08_2349,
4,"[2.9, 2.9]",0,10,10,33,,,,,0,0,0,0,,,down,1.2421481401,,,DMA,f,19,59.9979395196,Set,2017_03_08_2349,
4,"[2.9, 2.9]",0,10,10,33,,,,,1,0,1,0,,,down,0.11694549094,,,DMA,f,19,59.9979395196,Set,2017_03_08_2349,
4,"[2.9, 2.9]",0,10,10,33,,,,,2,0,2,0,,,down,0.125466335216,space,0.975504447357,DMA,f,19,59.9979395196,Set,2017_03_08_2349,
6,"[2.6, 2.6]",0,11,11,5,0,0,0,0,2,0,2,0,,,,,,,DMA,f,19,59.9979395196,Set,2017_03_08_2349,
6,"[2.6, 2.6]",0,11,11,5,1,0,1,0,2,0,2,0,,,,,,,DMA,f,19,59.9979395196,Set,2017_03_08_2349,
6,"[2.6, 2.6]",0,11,11,5,2,0,2,0,2,0,2,0,,,,,,,DMA,f,19,59.9979395196,Set,2017_03_08_2349,
6,"[2.6, 2.6]",0,11,11,5,3,0,3,0,2,0,2,0,,,,,,,DMA,f,19,59.9979395196,Set,2017_03_08_2349,
6,"[2.6, 2.6]",0,11,11,5,4,0,4,0,2,0,2,0,,,,,,,DMA,f,19,59.9979395196,Set,2017_03_08_2349,
6,"[2.6, 2.6]",0,11,11,5,5,0,5,0,2,0,2,0,,,,,,,DMA,f,19,59.9979395196,Set,2017_03_08_2349,
6,"[2.6, 2.6]",0,11,11,5,,,,,0,0,0,0,,,down,0.625530480407,,,DMA,f,19,59.9979395196,Set,2017_03_08_2349,
6,"[2.6, 2.6]",0,11,11,5,,,,,1,0,1,0,,,down,0.192143738852,,,DMA,f,19,59.9979395196,Set,2017_03_08_2349,
6,"[2.6, 2.6]",0,11,11,5,,,,,2,0,2,0,,,down,0.242179324618,space,0.992129291408,DMA,f,19,59.9979395196,Set,2017_03_08_2349,
1,"[2.8, 2.8]",0,12,12,20,0,0,0,0,2,0,2,0,,,,,,,DMA,f,19,59.9979395196,Set,2017_03_08_2349,
1,"[2.8, 2.8]",0,12,12,20,,,,,0,0,0,0,,,down,1.11691904324,,,DMA,f,19,59.9979395196,Set,2017_03_08_2349,
1,"[2.8, 2.8]",0,12,12,20,,,,,1,0,1,0,,,down,0.416954925167,,,DMA,f,19,59.9979395196,Set,2017_03_08_2349,
1,"[2.8, 2.8]",0,12,12,20,,,,,2,0,2,0,,,down,0.300279041287,space,1.52549444069,DMA,f,19,59.9979395196,Set,2017_03_08_2349,
1,"[2.9, 2.9]",0,13,13,30,0,0,0,0,2,0,2,0,,,,,,,DMA,f,19,59.9979395196,Set,2017_03_08_2349,
1,"[2.9, 2.9]",0,13,13,30,,,,,0,0,0,0,,,right,0.992158107343,,,DMA,f,19,59.9979395196,Set,2017_03_08_2349,
1,"[2.9, 2.9]",0,13,13,30,,,,,1,0,1,0,,,right,0.316787831951,,,DMA,f,19,59.9979395196,Set,2017_03_08_2349,
1,"[2.9, 2.9]",0,13,13,30,,,,,2,0,2,0,,,right,0.333576492732,,,DMA,f,19,59.9979395196,Set,2017_03_08_2349,
1,"[2.9, 2.9]",0,13,13,30,,,,,3,0,3,0,,,right,0.408805135754,,,DMA,f,19,59.9979395196,Set,2017_03_08_2349,
1,"[2.9, 2.9]",0,13,13,30,,,,,4,0,4,0,,,right,0.533590150764,,,DMA,f,19,59.9979395196,Set,2017_03_08_2349,
1,"[2.9, 2.9]",0,13,13,30,,,,,5,0,5,0,,,right,0.442147192778,,,DMA,f,19,59.9979395196,Set,2017_03_08_2349,
1,"[2.9, 2.9]",0,13,13,30,,,,,6,0,6,0,,,right,1.72549862484,,,DMA,f,19,59.9979395196,Set,2017_03_08_2349,
1,"[2.9, 2.9]",0,13,13,30,,,,,7,0,7,0,,,right,1.27546019701,,,DMA,f,19,59.9979395196,Set,2017_03_08_2349,
1,"[2.9, 2.9]",0,13,13,30,,,,,8,0,8,0,,,down,0.650241166004,,,DMA,f,19,59.9979395196,Set,2017_03_08_2349,
1,"[2.9, 2.9]",0,13,13,30,,,,,9,0,9,0,,,down,0.333590703434,,,DMA,f,19,59.9979395196,Set,2017_03_08_2349,
1,"[2.9, 2.9]",0,13,13,30,,,,,10,0,10,0,,,down,0.200318002026,space,1.24212050845,DMA,f,19,59.9979395196,Set,2017_03_08_2349,
9,"[2.6, 2.6]",0,14,14,8,0,0,0,0,10,0,10,0,,,,,,,DMA,f,19,59.9979395196,Set,2017_03_08_2349,
9,"[2.6, 2.6]",0,14,14,8,1,0,1,0,10,0,10,0,,,,,,,DMA,f,19,59.9979395196,Set,2017_03_08_2349,
9,"[2.6, 2.6]",0,14,14,8,2,0,2,0,10,0,10,0,,,,,,,DMA,f,19,59.9979395196,Set,2017_03_08_2349,
9,"[2.6, 2.6]",0,14,14,8,3,0,3,0,10,0,10,0,,,,,,,DMA,f,19,59.9979395196,Set,2017_03_08_2349,
9,"[2.6, 2.6]",0,14,14,8,4,0,4,0,10,0,10,0,,,,,,,DMA,f,19,59.9979395196,Set,2017_03_08_2349,
9,"[2.6, 2.6]",0,14,14,8,5,0,5,0,10,0,10,0,,,,,,,DMA,f,19,59.9979395196,Set,2017_03_08_2349,
9,"[2.6, 2.6]",0,14,14,8,6,0,6,0,10,0,10,0,,,,,,,DMA,f,19,59.9979395196,Set,2017_03_08_2349,
9,"[2.6, 2.6]",0,14,14,8,7,0,7,0,10,0,10,0,,,,,,,DMA,f,19,59.9979395196,Set,2017_03_08_2349,
9,"[2.6, 2.6]",0,14,14,8,8,0,8,0,10,0,10,0,,,,,,,DMA,f,19,59.9979395196,Set,2017_03_08_2349,
9,"[2.6, 2.6]",0,14,14,8,,,,,0,0,0,0,,,down,0.675494618365,,,DMA,f,19,59.9979395196,Set,2017_03_08_2349,
9,"[2.6, 2.6]",0,14,14,8,,,,,1,0,1,0,,,down,1.05877037894,,,DMA,f,19,59.9979395196,Set,2017_03_08_2349,
9,"[2.6, 2.6]",0,14,14,8,,,,,2,0,2,0,,,down,0.44212113996,space,1.09211362025,DMA,f,19,59.9979395196,Set,2017_03_08_2349,
2,"[2.9, 2.9]",0,15,15,31,0,0,0,0,2,0,2,0,,,,,,,DMA,f,19,59.9979395196,Set,2017_03_08_2349,
2,"[2.9, 2.9]",0,15,15,31,1,0,1,0,2,0,2,0,,,,,,,DMA,f,19,59.9979395196,Set,2017_03_08_2349,
2,"[2.9, 2.9]",0,15,15,31,,,,,0,0,0,0,,,down,1.11690562218,,,DMA,f,19,59.9979395196,Set,2017_03_08_2349,
2,"[2.9, 2.9]",0,15,15,31,,,,,1,0,1,0,,,down,0.450268560904,,,DMA,f,19,59.9979395196,Set,2017_03_08_2349,
2,"[2.9, 2.9]",0,15,15,31,,,,,2,0,2,0,,,down,0.342191679869,space,0.692192489165,DMA,f,19,59.9979395196,Set,2017_03_08_2349,
5,"[2.9, 2.9]",0,16,16,34,0,0,0,0,2,0,2,0,,,,,,,DMA,f,19,59.9979395196,Set,2017_03_08_2349,
5,"[2.9, 2.9]",0,16,16,34,1,0,1,0,2,0,2,0,,,,,,,DMA,f,19,59.9979395196,Set,2017_03_08_2349,
5,"[2.9, 2.9]",0,16,16,34,2,0,2,0,2,0,2,0,,,,,,,DMA,f,19,59.9979395196,Set,2017_03_08_2349,
5,"[2.9, 2.9]",0,16,16,34,3,0,3,0,2,0,2,0,,,,,,,DMA,f,19,59.9979395196,Set,2017_03_08_2349,
5,"[2.9, 2.9]",0,16,16,34,4,0,4,0,2,0,2,0,,,,,,,DMA,f,19,59.9979395196,Set,2017_03_08_2349,
5,"[2.9, 2.9]",0,16,16,34,,,,,0,0,0,0,,,right,0.916931832791,,,DMA,f,19,59.9979395196,Set,2017_03_08_2349,
5,"[2.9, 2.9]",0,16,16,34,,,,,1,0,1,0,,,right,0.425501822261,,,DMA,f,19,59.9979395196,Set,2017_03_08_2349,
5,"[2.9, 2.9]",0,16,16,34,,,,,2,0,2,0,,,right,0.225473558996,,,DMA,f,19,59.9979395196,Set,2017_03_08_2349,
5,"[2.9, 2.9]",0,16,16,34,,,,,3,0,3,0,,,right,0.625457848422,,,DMA,f,19,59.9979395196,Set,2017_03_08_2349,
5,"[2.9, 2.9]",0,16,16,34,,,,,4,0,4,0,,,right,0.275474802474,,,DMA,f,19,59.9979395196,Set,2017_03_08_2349,
5,"[2.9, 2.9]",0,16,16,34,,,,,5,0,5,0,,,down,0.492146067787,,,DMA,f,19,59.9979395196,Set,2017_03_08_2349,
5,"[2.9, 2.9]",0,16,16,34,,,,,6,0,6,0,,,down,0.15885497164,,,DMA,f,19,59.9979395196,Set,2017_03_08_2349,
5,"[2.9, 2.9]",0,16,16,34,,,,,7,0,7,0,,,down,0.125503835501,space,1.04213329789,DMA,f,19,59.9979395196,Set,2017_03_08_2349,
9,"[2.8, 2.8]",0,17,17,28,0,0,0,0,7,0,7,0,,,,,,,DMA,f,19,59.9979395196,Set,2017_03_08_2349,
9,"[2.8, 2.8]",0,17,17,28,1,0,1,0,7,0,7,0,,,,,,,DMA,f,19,59.9979395196,Set,2017_03_08_2349,
9,"[2.8, 2.8]",0,17,17,28,2,0,2,0,7,0,7,0,,,,,,,DMA,f,19,59.9979395196,Set,2017_03_08_2349,
9,"[2.8, 2.8]",0,17,17,28,3,0,3,0,7,0,7,0,,,,,,,DMA,f,19,59.9979395196,Set,2017_03_08_2349,
9,"[2.8, 2.8]",0,17,17,28,4,0,4,0,7,0,7,0,,,,,,,DMA,f,19,59.9979395196,Set,2017_03_08_2349,
9,"[2.8, 2.8]",0,17,17,28,5,0,5,0,7,0,7,0,,,,,,,DMA,f,19,59.9979395196,Set,2017_03_08_2349,
9,"[2.8, 2.8]",0,17,17,28,6,0,6,0,7,0,7,0,,,,,,,DMA,f,19,59.9979395196,Set,2017_03_08_2349,
9,"[2.8, 2.8]",0,17,17,28,7,0,7,0,7,0,7,0,,,,,,,DMA,f,19,59.9979395196,Set,2017_03_08_2349,
9,"[2.8, 2.8]",0,17,17,28,8,0,8,0,7,0,7,0,,,,,,,DMA,f,19,59.9979395196,Set,2017_03_08_2349,
9,"[2.8, 2.8]",0,17,17,28,,,,,0,0,0,0,,,down,1.46701537946,,,DMA,f,19,59.9979395196,Set,2017_03_08_2349,
9,"[2.8, 2.8]",0,17,17,28,,,,,1,0,1,0,,,right,1.47546043387,,,DMA,f,19,59.9979395196,Set,2017_03_08_2349,
9,"[2.8, 2.8]",0,17,17,28,,,,,2,0,2,0,,,down,0.708791675163,,,DMA,f,19,59.9979395196,Set,2017_03_08_2349,
9,"[2.8, 2.8]",0,17,17,28,,,,,3,0,3,0,,,down,0.808768503834,,,DMA,f,19,59.9979395196,Set,2017_03_08_2349,
9,"[2.8, 2.8]",0,17,17,28,,,,,4,0,4,0,,,down,1.32544644037,space,0.808812714764,DMA,f,19,59.9979395196,Set,2017_03_08_2349,
2,"[2.7, 2.7]",0,18,18,11,0,0,0,0,4,0,4,0,,,,,,,DMA,f,19,59.9979395196,Set,2017_03_08_2349,
2,"[2.7, 2.7]",0,18,18,11,1,0,1,0,4,0,4,0,,,,,,,DMA,f,19,59.9979395196,Set,2017_03_08_2349,
2,"[2.7, 2.7]",0,18,18,11,,,,,0,0,0,0,,,right,1.80883403064,,,DMA,f,19,59.9979395196,Set,2017_03_08_2349,
2,"[2.7, 2.7]",0,18,18,11,,,,,1,0,1,0,,,right,1.10885767557,,,DMA,f,19,59.9979395196,Set,2017_03_08_2349,
2,"[2.7, 2.7]",0,18,18,11,,,,,2,0,2,0,,,down,0.125495545915,,,DMA,f,19,59.9979395196,Set,2017_03_08_2349,
2,"[2.7, 2.7]",0,18,18,11,,,,,3,0,3,0,,,down,0.108813464758,,,DMA,f,19,59.9979395196,Set,2017_03_08_2349,
2,"[2.7, 2.7]",0,18,18,11,,,,,4,0,4,0,,,down,0.0921096728416,space,0.958897366538,DMA,f,19,59.9979395196,Set,2017_03_08_2349,
5,"[2.7, 2.7]",0,19,19,14,0,0,0,0,4,0,4,0,,,,,,,DMA,f,19,59.9979395196,Set,2017_03_08_2349,
5,"[2.7, 2.7]",0,19,19,14,1,0,1,0,4,0,4,0,,,,,,,DMA,f,19,59.9979395196,Set,2017_03_08_2349,
5,"[2.7, 2.7]",0,19,19,14,2,0,2,0,4,0,4,0,,,,,,,DMA,f,19,59.9979395196,Set,2017_03_08_2349,
5,"[2.7, 2.7]",0,19,19,14,3,0,3,0,4,0,4,0,,,,,,,DMA,f,19,59.9979395196,Set,2017_03_08_2349,
5,"[2.7, 2.7]",0,19,19,14,4,0,4,0,4,0,4,0,,,,,,,DMA,f,19,59.9979395196,Set,2017_03_08_2349,
5,"[2.7, 2.7]",0,19,19,14,,,,,0,0,0,0,,,right,1.56695391855,,,DMA,f,19,59.9979395196,Set,2017_03_08_2349,
5,"[2.7, 2.7]",0,19,19,14,,,,,1,0,1,0,,,right,0.942169100861,,,DMA,f,19,59.9979395196,Set,2017_03_08_2349,
5,"[2.7, 2.7]",0,19,19,14,,,,,2,0,2,0,,,right,0.866870194324,,,DMA,f,19,59.9979395196,Set,2017_03_08_2349,
5,"[2.7, 2.7]",0,19,19,14,,,,,3,0,3,0,,,right,0.566938918433,,,DMA,f,19,59.9979395196,Set,2017_03_08_2349,
5,"[2.7, 2.7]",0,19,19,14,,,,,4,0,4,0,,,down,0.0255238488317,,,DMA,f,19,59.9979395196,Set,2017_03_08_2349,
5,"[2.7, 2.7]",0,19,19,14,,,,,5,0,5,0,,,down,0.32552617765,,,DMA,f,19,59.9979395196,Set,2017_03_08_2349,
5,"[2.7, 2.7]",0,19,19,14,,,,,6,0,6,0,,,down,0.283594591543,space,1.64215019275,DMA,f,19,59.9979395196,Set,2017_03_08_2349,
9,"[2.7, 2.7]",0,20,20,18,0,0,0,0,6,0,6,0,,,,,,,DMA,f,19,59.9979395196,Set,2017_03_08_2349,
9,"[2.7, 2.7]",0,20,20,18,1,0,1,0,6,0,6,0,,,,,,,DMA,f,19,59.9979395196,Set,2017_03_08_2349,
9,"[2.7, 2.7]",0,20,20,18,2,0,2,0,6,0,6,0,,,,,,,DMA,f,19,59.9979395196,Set,2017_03_08_2349,
9,"[2.7, 2.7]",0,20,20,18,3,0,3,0,6,0,6,0,,,,,,,DMA,f,19,59.9979395196,Set,2017_03_08_2349,
9,"[2.7, 2.7]",0,20,20,18,4,0,4,0,6,0,6,0,,,,,,,DMA,f,19,59.9979395196,Set,2017_03_08_2349,
9,"[2.7, 2.7]",0,20,20,18,5,0,5,0,6,0,6,0,,,,,,,DMA,f,19,59.9979395196,Set,2017_03_08_2349,
9,"[2.7, 2.7]",0,20,20,18,6,0,6,0,6,0,6,0,,,,,,,DMA,f,19,59.9979395196,Set,2017_03_08_2349,
9,"[2.7, 2.7]",0,20,20,18,7,0,7,0,6,0,6,0,,,,,,,DMA,f,19,59.9979395196,Set,2017_03_08_2349,
9,"[2.7, 2.7]",0,20,20,18,8,0,8,0,6,0,6,0,,,,,,,DMA,f,19,59.9979395196,Set,2017_03_08_2349,
9,"[2.7, 2.7]",0,20,20,18,,,,,0,0,0,0,,,right,1.34214470594,,,DMA,f,19,59.9979395196,Set,2017_03_08_2349,
9,"[2.7, 2.7]",0,20,20,18,,,,,1,0,1,0,,,right,0.82548926957,,,DMA,f,19,59.9979395196,Set,2017_03_08_2349,
9,"[2.7, 2.7]",0,20,20,18,,,,,2,0,2,0,,,right,0.525494835456,,,DMA,f,19,59.9979395196,Set,2017_03_08_2349,
9,"[2.7, 2.7]",0,20,20,18,,,,,3,0,3,0,,,right,0.442098245025,,,DMA,f,19,59.9979395196,Set,2017_03_08_2349,
9,"[2.7, 2.7]",0,20,20,18,,,,,4,0,4,0,,,right,0.642166377162,,,DMA,f,19,59.9979395196,Set,2017_03_08_2349,
9,"[2.7, 2.7]",0,20,20,18,,,,,5,0,5,0,,,down,0.392145949416,,,DMA,f,19,59.9979395196,Set,2017_03_08_2349,
9,"[2.7, 2.7]",0,20,20,18,,,,,6,0,6,0,,,down,0.258761536679,,,DMA,f,19,59.9979395196,Set,2017_03_08_2349,
9,"[2.7, 2.7]",0,20,20,18,,,,,7,0,7,0,,,down,0.13357625599,space,0.950107309967,DMA,f,19,59.9979395196,Set,2017_03_08_2349,
2,"[2.8, 2.8]",0,21,21,21,0,0,0,0,7,0,7,0,,,,,,,DMA,f,19,59.9979395196,Set,2017_03_08_2349,
2,"[2.8, 2.8]",0,21,21,21,1,0,1,0,7,0,7,0,,,,,,,DMA,f,19,59.9979395196,Set,2017_03_08_2349,
2,"[2.8, 2.8]",0,21,21,21,,,,,0,0,0,0,,,right,2.05027716618,,,DMA,f,19,59.9979395196,Set,2017_03_08_2349,
2,"[2.8, 2.8]",0,21,21,21,,,,,1,0,1,0,,,down,0.825515717152,,,DMA,f,19,59.9979395196,Set,2017_03_08_2349,
2,"[2.8, 2.8]",0,21,21,21,,,,,2,0,2,0,,,down,0.108782280353,,,DMA,f,19,59.9979395196,Set,2017_03_08_2349,
2,"[2.8, 2.8]",0,21,21,21,,,,,3,0,3,0,,,down,0.133605861454,space,0.708825622685,DMA,f,19,59.9979395196,Set,2017_03_08_2349,
5,"[2.6, 2.6]",0,22,22,4,0,0,0,0,3,0,3,0,,,,,,,DMA,f,19,59.9979395196,Set,2017_03_08_2349,
5,"[2.6, 2.6]",0,22,22,4,1,0,1,0,3,0,3,0,,,,,,,DMA,f,19,59.9979395196,Set,2017_03_08_2349,
5,"[2.6, 2.6]",0,22,22,4,2,0,2,0,3,0,3,0,,,,,,,DMA,f,19,59.9979395196,Set,2017_03_08_2349,
5,"[2.6, 2.6]",0,22,22,4,3,0,3,0,3,0,3,0,,,,,,,DMA,f,19,59.9979395196,Set,2017_03_08_2349,
5,"[2.6, 2.6]",0,22,22,4,4,0,4,0,3,0,3,0,,,,,,,DMA,f,19,59.9979395196,Set,2017_03_08_2349,
5,"[2.6, 2.6]",0,22,22,4,,,,,0,0,0,0,,,down,0.850258376682,,,DMA,f,19,59.9979395196,Set,2017_03_08_2349,
5,"[2.6, 2.6]",0,22,22,4,,,,,1,0,1,0,,,down,0.675463828724,,,DMA,f,19,59.9979395196,Set,2017_03_08_2349,
5,"[2.6, 2.6]",0,22,22,4,,,,,2,0,2,0,,,down,0.442143245484,space,1.27551072359,DMA,f,19,59.9979395196,Set,2017_03_08_2349,
10,"[2.8, 2.8]",0,23,23,29,0,0,0,0,2,0,2,0,,,,,,,DMA,f,19,59.9979395196,Set,2017_03_08_2349,
10,"[2.8, 2.8]",0,23,23,29,1,0,1,0,2,0,2,0,,,,,,,DMA,f,19,59.9979395196,Set,2017_03_08_2349,
10,"[2.8, 2.8]",0,23,23,29,2,0,2,0,2,0,2,0,,,,,,,DMA,f,19,59.9979395196,Set,2017_03_08_2349,
10,"[2.8, 2.8]",0,23,23,29,3,0,3,0,2,0,2,0,,,,,,,DMA,f,19,59.9979395196,Set,2017_03_08_2349,
10,"[2.8, 2.8]",0,23,23,29,4,0,4,0,2,0,2,0,,,,,,,DMA,f,19,59.9979395196,Set,2017_03_08_2349,
10,"[2.8, 2.8]",0,23,23,29,5,0,5,0,2,0,2,0,,,,,,,DMA,f,19,59.9979395196,Set,2017_03_08_2349,
10,"[2.8, 2.8]",0,23,23,29,6,0,6,0,2,0,2,0,,,,,,,DMA,f,19,59.9979395196,Set,2017_03_08_2349,
10,"[2.8, 2.8]",0,23,23,29,7,0,7,0,2,0,2,0,,,,,,,DMA,f,19,59.9979395196,Set,2017_03_08_2349,
10,"[2.8, 2.8]",0,23,23,29,8,0,8,0,2,0,2,0,,,,,,,DMA,f,19,59.9979395196,Set,2017_03_08_2349,
10,"[2.8, 2.8]",0,23,23,29,9,0,9,0,2,0,2,0,,,,,,,DMA,f,19,59.9979395196,Set,2017_03_08_2349,
10,"[2.8, 2.8]",0,23,23,29,,,,,0,0,0,0,,,down,1.000258949,,,DMA,f,19,59.9979395196,Set,2017_03_08_2349,
10,"[2.8, 2.8]",0,23,23,29,,,,,1,0,1,0,,,down,0.392120686127,,,DMA,f,19,59.9979395196,Set,2017_03_08_2349,
10,"[2.8, 2.8]",0,23,23,29,,,,,2,0,2,0,,,down,0.492162646842,space,0.791978658875,DMA,f,19,59.9979395196,Set,2017_03_08_2349,
10,"[2.6, 2.6]",0,24,24,9,0,0,0,0,2,0,2,0,,,,,,,DMA,f,19,59.9979395196,Set,2017_03_08_2349,
10,"[2.6, 2.6]",0,24,24,9,1,0,1,0,2,0,2,0,,,,,,,DMA,f,19,59.9979395196,Set,2017_03_08_2349,
10,"[2.6, 2.6]",0,24,24,9,2,0,2,0,2,0,2,0,,,,,,,DMA,f,19,59.9979395196,Set,2017_03_08_2349,
10,"[2.6, 2.6]",0,24,24,9,3,0,3,0,2,0,2,0,,,,,,,DMA,f,19,59.9979395196,Set,2017_03_08_2349,
10,"[2.6, 2.6]",0,24,24,9,4,0,4,0,2,0,2,0,,,,,,,DMA,f,19,59.9979395196,Set,2017_03_08_2349,
10,"[2.6, 2.6]",0,24,24,9,5,0,5,0,2,0,2,0,,,,,,,DMA,f,19,59.9979395196,Set,2017_03_08_2349,
10,"[2.6, 2.6]",0,24,24,9,6,0,6,0,2,0,2,0,,,,,,,DMA,f,19,59.9979395196,Set,2017_03_08_2349,
10,"[2.6, 2.6]",0,24,24,9,7,0,7,0,2,0,2,0,,,,,,,DMA,f,19,59.9979395196,Set,2017_03_08_2349,
10,"[2.6, 2.6]",0,24,24,9,8,0,8,0,2,0,2,0,,,,,,,DMA,f,19,59.9979395196,Set,2017_03_08_2349,
10,"[2.6, 2.6]",0,24,24,9,9,0,9,0,2,0,2,0,,,,,,,DMA,f,19,59.9979395196,Set,2017_03_08_2349,
10,"[2.6, 2.6]",0,24,24,9,,,,,0,0,0,0,,,right,1.18355657812,,,DMA,f,19,59.9979395196,Set,2017_03_08_2349,
10,"[2.6, 2.6]",0,24,24,9,,,,,1,0,1,0,,,right,1.18358499941,,,DMA,f,19,59.9979395196,Set,2017_03_08_2349,
10,"[2.6, 2.6]",0,24,24,9,,,,,2,0,2,0,,,right,0.500265462208,,,DMA,f,19,59.9979395196,Set,2017_03_08_2349,
10,"[2.6, 2.6]",0,24,24,9,,,,,3,0,3,0,,,right,0.608840109548,,,DMA,f,19,59.9979395196,Set,2017_03_08_2349,
10,"[2.6, 2.6]",0,24,24,9,,,,,4,0,4,0,,,down,0.0587944580475,,,DMA,f,19,59.9979395196,Set,2017_03_08_2349,
10,"[2.6, 2.6]",0,24,24,9,,,,,5,0,5,0,,,down,0.0169311618665,,,DMA,f,19,59.9979395196,Set,2017_03_08_2349,
10,"[2.6, 2.6]",0,24,24,9,,,,,6,0,6,0,,,down,0.733613282559,space,1.07553180284,DMA,f,19,59.9979395196,Set,2017_03_08_2349,
8,"[2.6, 2.6]",0,25,25,7,0,0,0,0,6,0,6,0,,,,,,,DMA,f,19,59.9979395196,Set,2017_03_08_2349,
8,"[2.6, 2.6]",0,25,25,7,1,0,1,0,6,0,6,0,,,,,,,DMA,f,19,59.9979395196,Set,2017_03_08_2349,
8,"[2.6, 2.6]",0,25,25,7,2,0,2,0,6,0,6,0,,,,,,,DMA,f,19,59.9979395196,Set,2017_03_08_2349,
8,"[2.6, 2.6]",0,25,25,7,3,0,3,0,6,0,6,0,,,,,,,DMA,f,19,59.9979395196,Set,2017_03_08_2349,
8,"[2.6, 2.6]",0,25,25,7,4,0,4,0,6,0,6,0,,,,,,,DMA,f,19,59.9979395196,Set,2017_03_08_2349,
8,"[2.6, 2.6]",0,25,25,7,5,0,5,0,6,0,6,0,,,,,,,DMA,f,19,59.9979395196,Set,2017_03_08_2349,
8,"[2.6, 2.6]",0,25,25,7,6,0,6,0,6,0,6,0,,,,,,,DMA,f,19,59.9979395196,Set,2017_03_08_2349,
8,"[2.6, 2.6]",0,25,25,7,7,0,7,0,6,0,6,0,,,,,,,DMA,f,19,59.9979395196,Set,2017_03_08_2349,
8,"[2.6, 2.6]",0,25,25,7,,,,,0,0,0,0,,,down,1.57548305253,,,DMA,f,19,59.9979395196,Set,2017_03_08_2349,
8,"[2.6, 2.6]",0,25,25,7,,,,,1,0,1,0,,,down,0.225491716992,,,DMA,f,19,59.9979395196,Set,2017_03_08_2349,
8,"[2.6, 2.6]",0,25,25,7,,,,,2,0,2,0,,,down,0.183410919388,space,0.825525585562,DMA,f,19,59.9979395196,Set,2017_03_08_2349,
5,"[2.8, 2.8]",0,26,26,24,0,0,0,0,2,0,2,0,,,,,,,DMA,f,19,59.9979395196,Set,2017_03_08_2349,
5,"[2.8, 2.8]",0,26,26,24,1,0,1,0,2,0,2,0,,,,,,,DMA,f,19,59.9979395196,Set,2017_03_08_2349,
5,"[2.8, 2.8]",0,26,26,24,2,0,2,0,2,0,2,0,,,,,,,DMA,f,19,59.9979395196,Set,2017_03_08_2349,
5,"[2.8, 2.8]",0,26,26,24,3,0,3,0,2,0,2,0,,,,,,,DMA,f,19,59.9979395196,Set,2017_03_08_2349,
5,"[2.8, 2.8]",0,26,26,24,4,0,4,0,2,0,2,0,,,,,,,DMA,f,19,59.9979395196,Set,2017_03_08_2349,
5,"[2.8, 2.8]",0,26,26,24,,,,,0,0,0,0,,,right,1.03362784837,,,DMA,f,19,59.9979395196,Set,2017_03_08_2349,
5,"[2.8, 2.8]",0,26,26,24,,,,,1,0,1,0,,,right,0.175487710396,,,DMA,f,19,59.9979395196,Set,2017_03_08_2349,
5,"[2.8, 2.8]",0,26,26,24,,,,,2,0,2,0,,,down,0.150283205789,,,DMA,f,19,59.9979395196,Set,2017_03_08_2349,
5,"[2.8, 2.8]",0,26,26,24,,,,,3,0,3,0,,,down,0.0754725917941,,,DMA,f,19,59.9979395196,Set,2017_03_08_2349,
5,"[2.8, 2.8]",0,26,26,24,,,,,4,0,4,0,,,down,0.225459348294,space,0.842199377366,DMA,f,19,59.9979395196,Set,2017_03_08_2349,
2,"[2.6, 2.6]",0,27,27,1,0,0,0,0,4,0,4,0,,,,,,,DMA,f,19,59.9979395196,Set,2017_03_08_2349,
2,"[2.6, 2.6]",0,27,27,1,1,0,1,0,4,0,4,0,,,,,,,DMA,f,19,59.9979395196,Set,2017_03_08_2349,
2,"[2.6, 2.6]",0,27,27,1,,,,,0,0,0,0,,,down,0.916963017313,,,DMA,f,19,59.9979395196,Set,2017_03_08_2349,
2,"[2.6, 2.6]",0,27,27,1,,,,,1,0,1,0,,,down,0.042128955829,,,DMA,f,19,59.9979395196,Set,2017_03_08_2349,
2,"[2.6, 2.6]",0,27,27,1,,,,,2,0,2,0,,,down,0.0588520900346,space,0.658850037376,DMA,f,19,59.9979395196,Set,2017_03_08_2349,
6,"[2.7, 2.7]",0,28,28,15,0,0,0,0,2,0,2,0,,,,,,,DMA,f,19,59.9979395196,Set,2017_03_08_2349,
6,"[2.7, 2.7]",0,28,28,15,1,0,1,0,2,0,2,0,,,,,,,DMA,f,19,59.9979395196,Set,2017_03_08_2349,
6,"[2.7, 2.7]",0,28,28,15,2,0,2,0,2,0,2,0,,,,,,,DMA,f,19,59.9979395196,Set,2017_03_08_2349,
6,"[2.7, 2.7]",0,28,28,15,3,0,3,0,2,0,2,0,,,,,,,DMA,f,19,59.9979395196,Set,2017_03_08_2349,
6,"[2.7, 2.7]",0,28,28,15,4,0,4,0,2,0,2,0,,,,,,,DMA,f,19,59.9979395196,Set,2017_03_08_2349,
6,"[2.7, 2.7]",0,28,28,15,5,0,5,0,2,0,2,0,,,,,,,DMA,f,19,59.9979395196,Set,2017_03_08_2349,
6,"[2.7, 2.7]",0,28,28,15,,,,,0,0,0,0,,,down,0.742143600713,,,DMA,f,19,59.9979395196,Set,2017_03_08_2349,
6,"[2.7, 2.7]",0,28,28,15,,,,,1,0,1,0,,,down,0.475551223964,,,DMA,f,19,59.9979395196,Set,2017_03_08_2349,
6,"[2.7, 2.7]",0,28,28,15,,,,,2,0,2,0,,,down,0.12550225656,space,0.875507486868,DMA,f,19,59.9979395196,Set,2017_03_08_2349,
7,"[2.8, 2.8]",0,29,29,26,0,0,0,0,2,0,2,0,,,,,,,DMA,f,19,59.9979395196,Set,2017_03_08_2349,
7,"[2.8, 2.8]",0,29,29,26,1,0,1,0,2,0,2,0,,,,,,,DMA,f,19,59.9979395196,Set,2017_03_08_2349,
7,"[2.8, 2.8]",0,29,29,26,2,0,2,0,2,0,2,0,,,,,,,DMA,f,19,59.9979395196,Set,2017_03_08_2349,
7,"[2.8, 2.8]",0,29,29,26,3,0,3,0,2,0,2,0,,,,,,,DMA,f,19,59.9979395196,Set,2017_03_08_2349,
7,"[2.8, 2.8]",0,29,29,26,4,0,4,0,2,0,2,0,,,,,,,DMA,f,19,59.9979395196,Set,2017_03_08_2349,
7,"[2.8, 2.8]",0,29,29,26,5,0,5,0,2,0,2,0,,,,,,,DMA,f,19,59.9979395196,Set,2017_03_08_2349,
7,"[2.8, 2.8]",0,29,29,26,6,0,6,0,2,0,2,0,,,,,,,DMA,f,19,59.9979395196,Set,2017_03_08_2349,
7,"[2.8, 2.8]",0,29,29,26,,,,,0,0,0,0,,,down,1.17544349958,,,DMA,f,19,59.9979395196,Set,2017_03_08_2349,
7,"[2.8, 2.8]",0,29,29,26,,,,,1,0,1,0,,,right,0.94219436415,,,DMA,f,19,59.9979395196,Set,2017_03_08_2349,
7,"[2.8, 2.8]",0,29,29,26,,,,,2,0,2,0,,,down,0.608797872555,,,DMA,f,19,59.9979395196,Set,2017_03_08_2349,
7,"[2.8, 2.8]",0,29,29,26,,,,,3,0,3,0,,,down,1.30007338198,,,DMA,f,19,59.9979395196,Set,2017_03_08_2349,
7,"[2.8, 2.8]",0,29,29,26,,,,,4,0,4,0,,,down,0.35901468317,space,0.825505848625,DMA,f,19,59.9979395196,Set,2017_03_08_2349,
7,"[2.7, 2.7]",0,30,30,16,0,0,0,0,4,0,4,0,,,,,,,DMA,f,19,59.9979395196,Set,2017_03_08_2349,
7,"[2.7, 2.7]",0,30,30,16,1,0,1,0,4,0,4,0,,,,,,,DMA,f,19,59.9979395196,Set,2017_03_08_2349,
7,"[2.7, 2.7]",0,30,30,16,2,0,2,0,4,0,4,0,,,,,,,DMA,f,19,59.9979395196,Set,2017_03_08_2349,
7,"[2.7, 2.7]",0,30,30,16,3,0,3,0,4,0,4,0,,,,,,,DMA,f,19,59.9979395196,Set,2017_03_08_2349,
7,"[2.7, 2.7]",0,30,30,16,4,0,4,0,4,0,4,0,,,,,,,DMA,f,19,59.9979395196,Set,2017_03_08_2349,
7,"[2.7, 2.7]",0,30,30,16,5,0,5,0,4,0,4,0,,,,,,,DMA,f,19,59.9979395196,Set,2017_03_08_2349,
7,"[2.7, 2.7]",0,30,30,16,6,0,6,0,4,0,4,0,,,,,,,DMA,f,19,59.9979395196,Set,2017_03_08_2349,
7,"[2.7, 2.7]",0,30,30,16,,,,,0,0,0,0,,,right,2.70877983293,,,DMA,f,19,59.9979395196,Set,2017_03_08_2349,
7,"[2.7, 2.7]",0,30,30,16,,,,,1,0,1,0,,,down,0.775520000025,,,DMA,f,19,59.9979395196,Set,2017_03_08_2349,
7,"[2.7, 2.7]",0,30,30,16,,,,,2,0,2,0,,,down,0.100266567548,,,DMA,f,19,59.9979395196,Set,2017_03_08_2349,
7,"[2.7, 2.7]",0,30,30,16,,,,,3,0,3,0,,,down,0.0169035299914,space,0.742186627234,DMA,f,19,59.9979395196,Set,2017_03_08_2349,
10,"[2.7, 2.7]",0,31,31,19,0,0,0,0,3,0,3,0,,,,,,,DMA,f,19,59.9979395196,Set,2017_03_08_2349,
10,"[2.7, 2.7]",0,31,31,19,1,0,1,0,3,0,3,0,,,,,,,DMA,f,19,59.9979395196,Set,2017_03_08_2349,
10,"[2.7, 2.7]",0,31,31,19,2,0,2,0,3,0,3,0,,,,,,,DMA,f,19,59.9979395196,Set,2017_03_08_2349,
10,"[2.7, 2.7]",0,31,31,19,3,0,3,0,3,0,3,0,,,,,,,DMA,f,19,59.9979395196,Set,2017_03_08_2349,
10,"[2.7, 2.7]",0,31,31,19,4,0,4,0,3,0,3,0,,,,,,,DMA,f,19,59.9979395196,Set,2017_03_08_2349,
10,"[2.7, 2.7]",0,31,31,19,5,0,5,0,3,0,3,0,,,,,,,DMA,f,19,59.9979395196,Set,2017_03_08_2349,
10,"[2.7, 2.7]",0,31,31,19,6,0,6,0,3,0,3,0,,,,,,,DMA,f,19,59.9979395196,Set,2017_03_08_2349,
10,"[2.7, 2.7]",0,31,31,19,7,0,7,0,3,0,3,0,,,,,,,DMA,f,19,59.9979395196,Set,2017_03_08_2349,
10,"[2.7, 2.7]",0,31,31,19,8,0,8,0,3,0,3,0,,,,,,,DMA,f,19,59.9979395196,Set,2017_03_08_2349,
10,"[2.7, 2.7]",0,31,31,19,9,0,9,0,3,0,3,0,,,,,,,DMA,f,19,59.9979395196,Set,2017_03_08_2349,
10,"[2.7, 2.7]",0,31,31,19,,,,,0,0,0,0,,,right,1.90878362244,,,DMA,f,19,59.9979395196,Set,2017_03_08_2349,
10,"[2.7, 2.7]",0,31,31,19,,,,,1,0,1,0,,,down,0.442129429546,,,DMA,f,19,59.9979395196,Set,2017_03_08_2349,
10,"[2.7, 2.7]",0,31,31,19,,,,,2,0,2,0,,,down,0.150221626507,,,DMA,f,19,59.9979395196,Set,2017_03_08_2349,
10,"[2.7, 2.7]",0,31,31,19,,,,,3,0,3,0,,,down,0.366941444809,space,0.942183706211,DMA,f,19,59.9979395196,Set,2017_03_08_2349,
4,"[2.7, 2.7]",0,32,32,13,0,0,0,0,3,0,3,0,,,,,,,DMA,f,19,59.9979395196,Set,2017_03_08_2349,
4,"[2.7, 2.7]",0,32,32,13,1,0,1,0,3,0,3,0,,,,,,,DMA,f,19,59.9979395196,Set,2017_03_08_2349,
4,"[2.7, 2.7]",0,32,32,13,2,0,2,0,3,0,3,0,,,,,,,DMA,f,19,59.9979395196,Set,2017_03_08_2349,
4,"[2.7, 2.7]",0,32,32,13,3,0,3,0,3,0,3,0,,,,,,,DMA,f,19,59.9979395196,Set,2017_03_08_2349,
4,"[2.7, 2.7]",0,32,32,13,,,,,0,0,0,0,,,right,1.46692695783,,,DMA,f,19,59.9979395196,Set,2017_03_08_2349,
4,"[2.7, 2.7]",0,32,32,13,,,,,1,0,1,0,,,down,0.858802905423,,,DMA,f,19,59.9979395196,Set,2017_03_08_2349,
4,"[2.7, 2.7]",0,32,32,13,,,,,2,0,2,0,,,down,0.300260488526,,,DMA,f,19,59.9979395196,Set,2017_03_08_2349,
4,"[2.7, 2.7]",0,32,32,13,,,,,3,0,3,0,,,down,0.150259126676,space,0.658802273916,DMA,f,19,59.9979395196,Set,2017_03_08_2349,
8,"[2.9, 2.9]",0,33,33,37,0,0,0,0,3,0,3,0,,,,,,,DMA,f,19,59.9979395196,Set,2017_03_08_2349,
8,"[2.9, 2.9]",0,33,33,37,1,0,1,0,3,0,3,0,,,,,,,DMA,f,19,59.9979395196,Set,2017_03_08_2349,
8,"[2.9, 2.9]",0,33,33,37,2,0,2,0,3,0,3,0,,,,,,,DMA,f,19,59.9979395196,Set,2017_03_08_2349,
8,"[2.9, 2.9]",0,33,33,37,3,0,3,0,3,0,3,0,,,,,,,DMA,f,19,59.9979395196,Set,2017_03_08_2349,
8,"[2.9, 2.9]",0,33,33,37,4,0,4,0,3,0,3,0,,,,,,,DMA,f,19,59.9979395196,Set,2017_03_08_2349,
8,"[2.9, 2.9]",0,33,33,37,5,0,5,0,3,0,3,0,,,,,,,DMA,f,19,59.9979395196,Set,2017_03_08_2349,
8,"[2.9, 2.9]",0,33,33,37,6,0,6,0,3,0,3,0,,,,,,,DMA,f,19,59.9979395196,Set,2017_03_08_2349,
8,"[2.9, 2.9]",0,33,33,37,7,0,7,0,3,0,3,0,,,,,,,DMA,f,19,59.9979395196,Set,2017_03_08_2349,
8,"[2.9, 2.9]",0,33,33,37,,,,,0,0,0,0,,,right,0.742136100656,,,DMA,f,19,59.9979395196,Set,2017_03_08_2349,
8,"[2.9, 2.9]",0,33,33,37,,,,,1,0,1,0,,,down,0.716977780452,,,DMA,f,19,59.9979395196,Set,2017_03_08_2349,
8,"[2.9, 2.9]",0,33,33,37,,,,,2,0,2,0,,,down,0.342155758641,,,DMA,f,19,59.9979395196,Set,2017_03_08_2349,
8,"[2.9, 2.9]",0,33,33,37,,,,,3,0,3,0,,,down,0.316965464619,space,0.775589474128,DMA,f,19,59.9979395196,Set,2017_03_08_2349,
8,"[2.7, 2.7]",0,34,34,17,0,0,0,0,3,0,3,0,,,,,,,DMA,f,19,59.9979395196,Set,2017_03_08_2349,
8,"[2.7, 2.7]",0,34,34,17,1,0,1,0,3,0,3,0,,,,,,,DMA,f,19,59.9979395196,Set,2017_03_08_2349,
8,"[2.7, 2.7]",0,34,34,17,2,0,2,0,3,0,3,0,,,,,,,DMA,f,19,59.9979395196,Set,2017_03_08_2349,
8,"[2.7, 2.7]",0,34,34,17,3,0,3,0,3,0,3,0,,,,,,,DMA,f,19,59.9979395196,Set,2017_03_08_2349,
8,"[2.7, 2.7]",0,34,34,17,4,0,4,0,3,0,3,0,,,,,,,DMA,f,19,59.9979395196,Set,2017_03_08_2349,
8,"[2.7, 2.7]",0,34,34,17,5,0,5,0,3,0,3,0,,,,,,,DMA,f,19,59.9979395196,Set,2017_03_08_2349,
8,"[2.7, 2.7]",0,34,34,17,6,0,6,0,3,0,3,0,,,,,,,DMA,f,19,59.9979395196,Set,2017_03_08_2349,
8,"[2.7, 2.7]",0,34,34,17,7,0,7,0,3,0,3,0,,,,,,,DMA,f,19,59.9979395196,Set,2017_03_08_2349,
8,"[2.7, 2.7]",0,34,34,17,,,,,0,0,0,0,,,down,0.842171745608,,,DMA,f,19,59.9979395196,Set,2017_03_08_2349,
8,"[2.7, 2.7]",0,34,34,17,,,,,1,0,1,0,,,down,0.308781727683,,,DMA,f,19,59.9979395196,Set,2017_03_08_2349,
8,"[2.7, 2.7]",0,34,34,17,,,,,2,0,2,0,,,down,0.375495447195,space,1.69194064545,DMA,f,19,59.9979395196,Set,2017_03_08_2349,
1,"[2.6, 2.6]",0,35,35,0,0,0,0,0,2,0,2,0,,,,,,,DMA,f,19,59.9979395196,Set,2017_03_08_2349,
1,"[2.6, 2.6]",0,35,35,0,,,,,0,0,0,0,,,down,1.02547134843,,,DMA,f,19,59.9979395196,Set,2017_03_08_2349,
1,"[2.6, 2.6]",0,35,35,0,,,,,1,0,1,0,,,down,0.108862412395,,,DMA,f,19,59.9979395196,Set,2017_03_08_2349,
1,"[2.6, 2.6]",0,35,35,0,,,,,2,0,2,0,,,down,0.0921795417089,space,0.758835945162,DMA,f,19,59.9979395196,Set,2017_03_08_2349,
10,"[2.9, 2.9]",0,36,36,39,0,0,0,0,2,0,2,0,,,,,,,DMA,f,19,59.9979395196,Set,2017_03_08_2349,
10,"[2.9, 2.9]",0,36,36,39,1,0,1,0,2,0,2,0,,,,,,,DMA,f,19,59.9979395196,Set,2017_03_08_2349,
10,"[2.9, 2.9]",0,36,36,39,2,0,2,0,2,0,2,0,,,,,,,DMA,f,19,59.9979395196,Set,2017_03_08_2349,
10,"[2.9, 2.9]",0,36,36,39,3,0,3,0,2,0,2,0,,,,,,,DMA,f,19,59.9979395196,Set,2017_03_08_2349,
10,"[2.9, 2.9]",0,36,36,39,4,0,4,0,2,0,2,0,,,,,,,DMA,f,19,59.9979395196,Set,2017_03_08_2349,
10,"[2.9, 2.9]",0,36,36,39,5,0,5,0,2,0,2,0,,,,,,,DMA,f,19,59.9979395196,Set,2017_03_08_2349,
10,"[2.9, 2.9]",0,36,36,39,6,0,6,0,2,0,2,0,,,,,,,DMA,f,19,59.9979395196,Set,2017_03_08_2349,
10,"[2.9, 2.9]",0,36,36,39,7,0,7,0,2,0,2,0,,,,,,,DMA,f,19,59.9979395196,Set,2017_03_08_2349,
10,"[2.9, 2.9]",0,36,36,39,8,0,8,0,2,0,2,0,,,,,,,DMA,f,19,59.9979395196,Set,2017_03_08_2349,
10,"[2.9, 2.9]",0,36,36,39,9,0,9,0,2,0,2,0,,,,,,,DMA,f,19,59.9979395196,Set,2017_03_08_2349,
10,"[2.9, 2.9]",0,36,36,39,,,,,0,0,0,0,,,right,0.766910734004,,,DMA,f,19,59.9979395196,Set,2017_03_08_2349,
10,"[2.9, 2.9]",0,36,36,39,,,,,1,0,1,0,,,down,0.542128363624,,,DMA,f,19,59.9979395196,Set,2017_03_08_2349,
10,"[2.9, 2.9]",0,36,36,39,,,,,2,0,2,0,,,down,0.208808846306,,,DMA,f,19,59.9979395196,Set,2017_03_08_2349,
10,"[2.9, 2.9]",0,36,36,39,,,,,3,0,3,0,,,down,0.192146107205,space,0.758841866278,DMA,f,19,59.9979395196,Set,2017_03_08_2349,
3,"[2.8, 2.8]",0,37,37,22,0,0,0,0,3,0,3,0,,,,,,,DMA,f,19,59.9979395196,Set,2017_03_08_2349,
3,"[2.8, 2.8]",0,37,37,22,1,0,1,0,3,0,3,0,,,,,,,DMA,f,19,59.9979395196,Set,2017_03_08_2349,
3,"[2.8, 2.8]",0,37,37,22,2,0,2,0,3,0,3,0,,,,,,,DMA,f,19,59.9979395196,Set,2017_03_08_2349,
3,"[2.8, 2.8]",0,37,37,22,,,,,0,0,0,0,,,down,0.725470993202,,,DMA,f,19,59.9979395196,Set,2017_03_08_2349,
3,"[2.8, 2.8]",0,37,37,22,,,,,1,0,1,0,,,down,0.208813583129,,,DMA,f,19,59.9979395196,Set,2017_03_08_2349,
3,"[2.8, 2.8]",0,37,37,22,,,,,2,0,2,0,,,down,0.175459289225,space,0.708823254332,DMA,f,19,59.9979395196,Set,2017_03_08_2349,
7,"[2.9, 2.9]",0,38,38,36,0,0,0,0,2,0,2,0,,,,,,,DMA,f,19,59.9979395196,Set,2017_03_08_2349,
7,"[2.9, 2.9]",0,38,38,36,1,0,1,0,2,0,2,0,,,,,,,DMA,f,19,59.9979395196,Set,2017_03_08_2349,
7,"[2.9, 2.9]",0,38,38,36,2,0,2,0,2,0,2,0,,,,,,,DMA,f,19,59.9979395196,Set,2017_03_08_2349,
7,"[2.9, 2.9]",0,38,38,36,3,0,3,0,2,0,2,0,,,,,,,DMA,f,19,59.9979395196,Set,2017_03_08_2349,
7,"[2.9, 2.9]",0,38,38,36,4,0,4,0,2,0,2,0,,,,,,,DMA,f,19,59.9979395196,Set,2017_03_08_2349,
7,"[2.9, 2.9]",0,38,38,36,5,0,5,0,2,0,2,0,,,,,,,DMA,f,19,59.9979395196,Set,2017_03_08_2349,
7,"[2.9, 2.9]",0,38,38,36,6,0,6,0,2,0,2,0,,,,,,,DMA,f,19,59.9979395196,Set,2017_03_08_2349,
7,"[2.9, 2.9]",0,38,38,36,,,,,0,0,0,0,,,right,1.65028182417,,,DMA,f,19,59.9979395196,Set,2017_03_08_2349,
7,"[2.9, 2.9]",0,38,38,36,,,,,1,0,1,0,,,right,0.700288593885,,,DMA,f,19,59.9979395196,Set,2017_03_08_2349,
7,"[2.9, 2.9]",0,38,38,36,,,,,2,0,2,0,,,right,0.642119008466,,,DMA,f,19,59.9979395196,Set,2017_03_08_2349,
7,"[2.9, 2.9]",0,38,38,36,,,,,3,0,3,0,,,down,0.0921562520089,,,DMA,f,19,59.9979395196,Set,2017_03_08_2349,
7,"[2.9, 2.9]",0,38,38,36,,,,,4,0,4,0,,,down,0.192169002141,,,DMA,f,19,59.9979395196,Set,2017_03_08_2349,
7,"[2.9, 2.9]",0,38,38,36,,,,,5,0,5,0,,,down,1.41695492505,space,0.975571947754,DMA,f,19,59.9979395196,Set,2017_03_08_2349,
3,"[2.7, 2.7]",0,39,39,12,0,0,0,0,5,0,5,0,,,,,,,DMA,f,19,59.9979395196,Set,2017_03_08_2349,
3,"[2.7, 2.7]",0,39,39,12,1,0,1,0,5,0,5,0,,,,,,,DMA,f,19,59.9979395196,Set,2017_03_08_2349,
3,"[2.7, 2.7]",0,39,39,12,2,0,2,0,5,0,5,0,,,,,,,DMA,f,19,59.9979395196,Set,2017_03_08_2349,
3,"[2.7, 2.7]",0,39,39,12,,,,,0,0,0,0,,,left,2.75878423429,,,DMA,f,19,59.9979395196,Set,2017_03_08_2349,
3,"[2.7, 2.7]",0,39,39,12,,,,,1,0,1,0,,,down,0.892134304508,,,DMA,f,19,59.9979395196,Set,2017_03_08_2349,
3,"[2.7, 2.7]",0,39,39,12,,,,,2,0,2,0,,,right,1.08356711769,,,DMA,f,19,59.9979395196,Set,2017_03_08_2349,
3,"[2.7, 2.7]",0,39,39,12,,,,,3,0,3,0,,,right,0.866956247482,,,DMA,f,19,59.9979395196,Set,2017_03_08_2349,
3,"[2.7, 2.7]",0,39,39,12,,,,,4,0,4,0,,,down,1.35027949512,,,DMA,f,19,59.9979395196,Set,2017_03_08_2349,
3,"[2.7, 2.7]",0,39,39,12,,,,,5,0,5,0,,,down,0.183596052113,,,DMA,f,19,59.9979395196,Set,2017_03_08_2349,
3,"[2.7, 2.7]",0,39,39,12,,,,,6,0,6,0,,,down,0.808833635878,space,1.08363106556,DMA,f,19,59.9979395196,Set,2017_03_08_2349,
6,"[2.7, 2.7]",1,0,40,15,0,0,0,0,6,0,6,0,,,,,,,DMA,f,19,59.9979395196,Set,2017_03_08_2349,
6,"[2.7, 2.7]",1,0,40,15,1,0,1,0,6,0,6,0,,,,,,,DMA,f,19,59.9979395196,Set,2017_03_08_2349,
6,"[2.7, 2.7]",1,0,40,15,2,0,2,0,6,0,6,0,,,,,,,DMA,f,19,59.9979395196,Set,2017_03_08_2349,
6,"[2.7, 2.7]",1,0,40,15,3,0,3,0,6,0,6,0,,,,,,,DMA,f,19,59.9979395196,Set,2017_03_08_2349,
6,"[2.7, 2.7]",1,0,40,15,4,0,4,0,6,0,6,0,,,,,,,DMA,f,19,59.9979395196,Set,2017_03_08_2349,
6,"[2.7, 2.7]",1,0,40,15,5,0,5,0,6,0,6,0,,,,,,,DMA,f,19,59.9979395196,Set,2017_03_08_2349,
6,"[2.7, 2.7]",1,0,40,15,,,,,0,0,0,0,,,down,1.27545585495,,,DMA,f,19,59.9979395196,Set,2017_03_08_2349,
6,"[2.7, 2.7]",1,0,40,15,,,,,1,0,1,0,,,down,1.02545911144,,,DMA,f,19,59.9979395196,Set,2017_03_08_2349,
6,"[2.7, 2.7]",1,0,40,15,,,,,2,0,2,0,,,down,1.25849903503,space,0.900281725451,DMA,f,19,59.9979395196,Set,2017_03_08_2349,
2,"[2.8, 2.8]",1,1,41,21,0,0,0,0,2,0,2,0,,,,,,,DMA,f,19,59.9979395196,Set,2017_03_08_2349,
2,"[2.8, 2.8]",1,1,41,21,1,0,1,0,2,0,2,0,,,,,,,DMA,f,19,59.9979395196,Set,2017_03_08_2349,
2,"[2.8, 2.8]",1,1,41,21,,,,,0,0,0,0,,,down,1.4088288201,,,DMA,f,19,59.9979395196,Set,2017_03_08_2349,
2,"[2.8, 2.8]",1,1,41,21,,,,,1,0,1,0,,,down,0.792150370544,,,DMA,f,19,59.9979395196,Set,2017_03_08_2349,
2,"[2.8, 2.8]",1,1,41,21,,,,,2,0,2,0,,,down,0.733609335031,space,0.883615039056,DMA,f,19,59.9979395196,Set,2017_03_08_2349,
10,"[2.6, 2.6]",1,2,42,9,0,0,0,0,2,0,2,0,,,,,,,DMA,f,19,59.9979395196,Set,2017_03_08_2349,
10,"[2.6, 2.6]",1,2,42,9,1,0,1,0,2,0,2,0,,,,,,,DMA,f,19,59.9979395196,Set,2017_03_08_2349,
10,"[2.6, 2.6]",1,2,42,9,2,0,2,0,2,0,2,0,,,,,,,DMA,f,19,59.9979395196,Set,2017_03_08_2349,
10,"[2.6, 2.6]",1,2,42,9,3,0,3,0,2,0,2,0,,,,,,,DMA,f,19,59.9979395196,Set,2017_03_08_2349,
10,"[2.6, 2.6]",1,2,42,9,4,0,4,0,2,0,2,0,,,,,,,DMA,f,19,59.9979395196,Set,2017_03_08_2349,
10,"[2.6, 2.6]",1,2,42,9,5,0,5,0,2,0,2,0,,,,,,,DMA,f,19,59.9979395196,Set,2017_03_08_2349,
10,"[2.6, 2.6]",1,2,42,9,6,0,6,0,2,0,2,0,,,,,,,DMA,f,19,59.9979395196,Set,2017_03_08_2349,
10,"[2.6, 2.6]",1,2,42,9,7,0,7,0,2,0,2,0,,,,,,,DMA,f,19,59.9979395196,Set,2017_03_08_2349,
10,"[2.6, 2.6]",1,2,42,9,8,0,8,0,2,0,2,0,,,,,,,DMA,f,19,59.9979395196,Set,2017_03_08_2349,
10,"[2.6, 2.6]",1,2,42,9,9,0,9,0,2,0,2,0,,,,,,,DMA,f,19,59.9979395196,Set,2017_03_08_2349,
10,"[2.6, 2.6]",1,2,42,9,,,,,0,0,0,0,,,down,1.05033124553,,,DMA,f,19,59.9979395196,Set,2017_03_08_2349,
10,"[2.6, 2.6]",1,2,42,9,,,,,1,0,1,0,,,down,0.55026315304,,,DMA,f,19,59.9979395196,Set,2017_03_08_2349,
10,"[2.6, 2.6]",1,2,42,9,,,,,2,0,2,0,,,down,0.533588966588,space,1.09217796265,DMA,f,19,59.9979395196,Set,2017_03_08_2349,
2,"[2.9, 2.9]",1,3,43,31,0,0,0,0,2,0,2,0,,,,,,,DMA,f,19,59.9979395196,Set,2017_03_08_2349,
2,"[2.9, 2.9]",1,3,43,31,1,0,1,0,2,0,2,0,,,,,,,DMA,f,19,59.9979395196,Set,2017_03_08_2349,
2,"[2.9, 2.9]",1,3,43,31,,,,,0,0,0,0,,,right,1.84214608755,,,DMA,f,19,59.9979395196,Set,2017_03_08_2349,
2,"[2.9, 2.9]",1,3,43,31,,,,,1,0,1,0,,,down,0.783589657396,,,DMA,f,19,59.9979395196,Set,2017_03_08_2349,
2,"[2.9, 2.9]",1,3,43,31,,,,,2,0,2,0,,,right,1.47551727633,,,DMA,f,19,59.9979395196,Set,2017_03_08_2349,
2,"[2.9, 2.9]",1,3,43,31,,,,,3,0,3,0,,,down,1.70022622519,,,DMA,f,19,59.9979395196,Set,2017_03_08_2349,
2,"[2.9, 2.9]",1,3,43,31,,,,,4,0,4,0,,,down,0.483584565227,,,DMA,f,19,59.9979395196,Set,2017_03_08_2349,
2,"[2.9, 2.9]",1,3,43,31,,,,,5,0,5,0,,,down,0.358790865866,space,1.32555736217,DMA,f,19,59.9979395196,Set,2017_03_08_2349,
5,"[2.7, 2.7]",1,4,44,14,0,0,0,0,5,0,5,0,,,,,,,DMA,f,19,59.9979395196,Set,2017_03_08_2349,
5,"[2.7, 2.7]",1,4,44,14,1,0,1,0,5,0,5,0,,,,,,,DMA,f,19,59.9979395196,Set,2017_03_08_2349,
5,"[2.7, 2.7]",1,4,44,14,2,0,2,0,5,0,5,0,,,,,,,DMA,f,19,59.9979395196,Set,2017_03_08_2349,
5,"[2.7, 2.7]",1,4,44,14,3,0,3,0,5,0,5,0,,,,,,,DMA,f,19,59.9979395196,Set,2017_03_08_2349,
5,"[2.7, 2.7]",1,4,44,14,4,0,4,0,5,0,5,0,,,,,,,DMA,f,19,59.9979395196,Set,2017_03_08_2349,
5,"[2.7, 2.7]",1,4,44,14,,,,,0,0,0,0,,,down,0.783587288926,,,DMA,f,19,59.9979395196,Set,2017_03_08_2349,
5,"[2.7, 2.7]",1,4,44,14,,,,,1,0,1,0,,,down,0.458825326641,,,DMA,f,19,59.9979395196,Set,2017_03_08_2349,
5,"[2.7, 2.7]",1,4,44,14,,,,,2,0,2,0,,,down,0.266924747266,space,0.975472078775,DMA,f,19,59.9979395196,Set,2017_03_08_2349,
10,"[2.8, 2.8]",1,5,45,29,0,0,0,0,2,0,2,0,,,,,,,DMA,f,19,59.9979395196,Set,2017_03_08_2349,
10,"[2.8, 2.8]",1,5,45,29,1,0,1,0,2,0,2,0,,,,,,,DMA,f,19,59.9979395196,Set,2017_03_08_2349,
10,"[2.8, 2.8]",1,5,45,29,2,0,2,0,2,0,2,0,,,,,,,DMA,f,19,59.9979395196,Set,2017_03_08_2349,
10,"[2.8, 2.8]",1,5,45,29,3,0,3,0,2,0,2,0,,,,,,,DMA,f,19,59.9979395196,Set,2017_03_08_2349,
10,"[2.8, 2.8]",1,5,45,29,4,0,4,0,2,0,2,0,,,,,,,DMA,f,19,59.9979395196,Set,2017_03_08_2349,
10,"[2.8, 2.8]",1,5,45,29,5,0,5,0,2,0,2,0,,,,,,,DMA,f,19,59.9979395196,Set,2017_03_08_2349,
10,"[2.8, 2.8]",1,5,45,29,6,0,6,0,2,0,2,0,,,,,,,DMA,f,19,59.9979395196,Set,2017_03_08_2349,
10,"[2.8, 2.8]",1,5,45,29,7,0,7,0,2,0,2,0,,,,,,,DMA,f,19,59.9979395196,Set,2017_03_08_2349,
10,"[2.8, 2.8]",1,5,45,29,8,0,8,0,2,0,2,0,,,,,,,DMA,f,19,59.9979395196,Set,2017_03_08_2349,
10,"[2.8, 2.8]",1,5,45,29,9,0,9,0,2,0,2,0,,,,,,,DMA,f,19,59.9979395196,Set,2017_03_08_2349,
10,"[2.8, 2.8]",1,5,45,29,,,,,0,0,0,0,,,right,0.95880894491,,,DMA,f,19,59.9979395196,Set,2017_03_08_2349,
10,"[2.8, 2.8]",1,5,45,29,,,,,1,0,1,0,,,down,0.933667993406,,,DMA,f,19,59.9979395196,Set,2017_03_08_2349,
10,"[2.8, 2.8]",1,5,45,29,,,,,2,0,2,0,,,down,0.475449775928,,,DMA,f,19,59.9979395196,Set,2017_03_08_2349,
10,"[2.8, 2.8]",1,5,45,29,,,,,3,0,3,0,,,down,0.283613933832,space,0.975648922031,DMA,f,19,59.9979395196,Set,2017_03_08_2349,
9,"[2.7, 2.7]",1,6,46,18,0,0,0,0,3,0,3,0,,,,,,,DMA,f,19,59.9979395196,Set,2017_03_08_2349,
9,"[2.7, 2.7]",1,6,46,18,1,0,1,0,3,0,3,0,,,,,,,DMA,f,19,59.9979395196,Set,2017_03_08_2349,
9,"[2.7, 2.7]",1,6,46,18,2,0,2,0,3,0,3,0,,,,,,,DMA,f,19,59.9979395196,Set,2017_03_08_2349,
9,"[2.7, 2.7]",1,6,46,18,3,0,3,0,3,0,3,0,,,,,,,DMA,f,19,59.9979395196,Set,2017_03_08_2349,
9,"[2.7, 2.7]",1,6,46,18,4,0,4,0,3,0,3,0,,,,,,,DMA,f,19,59.9979395196,Set,2017_03_08_2349,
9,"[2.7, 2.7]",1,6,46,18,5,0,5,0,3,0,3,0,,,,,,,DMA,f,19,59.9979395196,Set,2017_03_08_2349,
9,"[2.7, 2.7]",1,6,46,18,6,0,6,0,3,0,3,0,,,,,,,DMA,f,19,59.9979395196,Set,2017_03_08_2349,
9,"[2.7, 2.7]",1,6,46,18,7,0,7,0,3,0,3,0,,,,,,,DMA,f,19,59.9979395196,Set,2017_03_08_2349,
9,"[2.7, 2.7]",1,6,46,18,8,0,8,0,3,0,3,0,,,,,,,DMA,f,19,59.9979395196,Set,2017_03_08_2349,
9,"[2.7, 2.7]",1,6,46,18,,,,,0,0,0,0,,,right,0.966922418331,,,DMA,f,19,59.9979395196,Set,2017_03_08_2349,
9,"[2.7, 2.7]",1,6,46,18,,,,,1,0,1,0,,,down,2.08355132816,,,DMA,f,19,59.9979395196,Set,2017_03_08_2349,
9,"[2.7, 2.7]",1,6,46,18,,,,,2,0,2,0,,,down,0.492149620433,,,DMA,f,19,59.9979395196,Set,2017_03_08_2349,
9,"[2.7, 2.7]",1,6,46,18,,,,,3,0,3,0,,,down,1.87541393354,space,0.792179581127,DMA,f,19,59.9979395196,Set,2017_03_08_2349,
3,"[2.8, 2.8]",1,7,47,22,0,0,0,0,3,0,3,0,,,,,,,DMA,f,19,59.9979395196,Set,2017_03_08_2349,
3,"[2.8, 2.8]",1,7,47,22,1,0,1,0,3,0,3,0,,,,,,,DMA,f,19,59.9979395196,Set,2017_03_08_2349,
3,"[2.8, 2.8]",1,7,47,22,2,0,2,0,3,0,3,0,,,,,,,DMA,f,19,59.9979395196,Set,2017_03_08_2349,
3,"[2.8, 2.8]",1,7,47,22,,,,,0,0,0,0,,,right,0.75880712911,,,DMA,f,19,59.9979395196,Set,2017_03_08_2349,
3,"[2.8, 2.8]",1,7,47,22,,,,,1,0,1,0,,,down,0.550318811205,,,DMA,f,19,59.9979395196,Set,2017_03_08_2349,
3,"[2.8, 2.8]",1,7,47,22,,,,,2,0,2,0,,,down,0.225485401228,,,DMA,f,19,59.9979395196,Set,2017_03_08_2349,
3,"[2.8, 2.8]",1,7,47,22,,,,,3,0,3,0,,,down,0.116900490597,space,0.842159903375,DMA,f,19,59.9979395196,Set,2017_03_08_2349,
1,"[2.8, 2.8]",1,8,48,20,0,0,0,0,3,0,3,0,,,,,,,DMA,f,19,59.9979395196,Set,2017_03_08_2349,
1,"[2.8, 2.8]",1,8,48,20,,,,,0,0,0,0,,,down,3.44210258732,,,DMA,f,19,59.9979395196,Set,2017_03_08_2349,
1,"[2.8, 2.8]",1,8,48,20,,,,,1,0,1,0,,,down,0.475456091808,,,DMA,f,19,59.9979395196,Set,2017_03_08_2349,
1,"[2.8, 2.8]",1,8,48,20,,,,,2,0,2,0,,,down,0.266918036737,space,1.54218599573,DMA,f,19,59.9979395196,Set,2017_03_08_2349,
7,"[2.6, 2.6]",1,9,49,6,0,0,0,0,2,0,2,0,,,,,,,DMA,f,19,59.9979395196,Set,2017_03_08_2349,
7,"[2.6, 2.6]",1,9,49,6,1,0,1,0,2,0,2,0,,,,,,,DMA,f,19,59.9979395196,Set,2017_03_08_2349,
7,"[2.6, 2.6]",1,9,49,6,2,0,2,0,2,0,2,0,,,,,,,DMA,f,19,59.9979395196,Set,2017_03_08_2349,
7,"[2.6, 2.6]",1,9,49,6,3,0,3,0,2,0,2,0,,,,,,,DMA,f,19,59.9979395196,Set,2017_03_08_2349,
7,"[2.6, 2.6]",1,9,49,6,4,0,4,0,2,0,2,0,,,,,,,DMA,f,19,59.9979395196,Set,2017_03_08_2349,
7,"[2.6, 2.6]",1,9,49,6,5,0,5,0,2,0,2,0,,,,,,,DMA,f,19,59.9979395196,Set,2017_03_08_2349,
7,"[2.6, 2.6]",1,9,49,6,6,0,6,0,2,0,2,0,,,,,,,DMA,f,19,59.9979395196,Set,2017_03_08_2349,
7,"[2.6, 2.6]",1,9,49,6,,,,,0,0,0,0,,,down,1.53348909749,,,DMA,f,19,59.9979395196,Set,2017_03_08_2349,
7,"[2.6, 2.6]",1,9,49,6,,,,,1,0,1,0,,,down,1.03379166522,,,DMA,f,19,59.9979395196,Set,2017_03_08_2349,
7,"[2.6, 2.6]",1,9,49,6,,,,,2,0,2,0,,,down,0.492165015312,space,1.57549568417,DMA,f,19,59.9979395196,Set,2017_03_08_2349,
6,"[2.6, 2.6]",1,10,50,5,0,0,0,0,2,0,2,0,,,,,,,DMA,f,19,59.9979395196,Set,2017_03_08_2349,
6,"[2.6, 2.6]",1,10,50,5,1,0,1,0,2,0,2,0,,,,,,,DMA,f,19,59.9979395196,Set,2017_03_08_2349,
6,"[2.6, 2.6]",1,10,50,5,2,0,2,0,2,0,2,0,,,,,,,DMA,f,19,59.9979395196,Set,2017_03_08_2349,
6,"[2.6, 2.6]",1,10,50,5,3,0,3,0,2,0,2,0,,,,,,,DMA,f,19,59.9979395196,Set,2017_03_08_2349,
6,"[2.6, 2.6]",1,10,50,5,4,0,4,0,2,0,2,0,,,,,,,DMA,f,19,59.9979395196,Set,2017_03_08_2349,
6,"[2.6, 2.6]",1,10,50,5,5,0,5,0,2,0,2,0,,,,,,,DMA,f,19,59.9979395196,Set,2017_03_08_2349,
6,"[2.6, 2.6]",1,10,50,5,,,,,0,0,0,0,,,right,0.79215155472,,,DMA,f,19,59.9979395196,Set,2017_03_08_2349,
6,"[2.6, 2.6]",1,10,50,5,,,,,1,0,1,0,,,down,0.692154988879,,,DMA,f,19,59.9979395196,Set,2017_03_08_2349,
6,"[2.6, 2.6]",1,10,50,5,,,,,2,0,2,0,,,down,0.225430137594,,,DMA,f,19,59.9979395196,Set,2017_03_08_2349,
6,"[2.6, 2.6]",1,10,50,5,,,,,3,0,3,0,,,down,1.8669005892,space,0.675513565773,DMA,f,19,59.9979395196,Set,2017_03_08_2349,
2,"[2.6, 2.6]",1,11,51,1,0,0,0,0,3,0,3,0,,,,,,,DMA,f,19,59.9979395196,Set,2017_03_08_2349,
2,"[2.6, 2.6]",1,11,51,1,1,0,1,0,3,0,3,0,,,,,,,DMA,f,19,59.9979395196,Set,2017_03_08_2349,
2,"[2.6, 2.6]",1,11,51,1,,,,,0,0,0,0,,,down,0.750282732071,,,DMA,f,19,59.9979395196,Set,2017_03_08_2349,
2,"[2.6, 2.6]",1,11,51,1,,,,,1,0,1,0,,,down,0.158806813299,,,DMA,f,19,59.9979395196,Set,2017_03_08_2349,
2,"[2.6, 2.6]",1,11,51,1,,,,,2,0,2,0,,,down,0.192102291156,space,1.09217677847,DMA,f,19,59.9979395196,Set,2017_03_08_2349,
4,"[2.7, 2.7]",1,12,52,13,0,0,0,0,2,0,2,0,,,,,,,DMA,f,19,59.9979395196,Set,2017_03_08_2349,
4,"[2.7, 2.7]",1,12,52,13,1,0,1,0,2,0,2,0,,,,,,,DMA,f,19,59.9979395196,Set,2017_03_08_2349,
4,"[2.7, 2.7]",1,12,52,13,2,0,2,0,2,0,2,0,,,,,,,DMA,f,19,59.9979395196,Set,2017_03_08_2349,
4,"[2.7, 2.7]",1,12,52,13,3,0,3,0,2,0,2,0,,,,,,,DMA,f,19,59.9979395196,Set,2017_03_08_2349,
4,"[2.7, 2.7]",1,12,52,13,,,,,0,0,0,0,,,down,0.558840445126,,,DMA,f,19,59.9979395196,Set,2017_03_08_2349,
4,"[2.7, 2.7]",1,12,52,13,,,,,1,0,1,0,,,right,0.375477683963,,,DMA,f,19,59.9979395196,Set,2017_03_08_2349,
4,"[2.7, 2.7]",1,12,52,13,,,,,2,0,2,0,,,down,1.35027949524,,,DMA,f,19,59.9979395196,Set,2017_03_08_2349,
4,"[2.7, 2.7]",1,12,52,13,,,,,3,0,3,0,,,down,0.275510328938,,,DMA,f,19,59.9979395196,Set,2017_03_08_2349,
4,"[2.7, 2.7]",1,12,52,13,,,,,4,0,4,0,,,down,1.54221560108,space,0.742112416192,DMA,f,19,59.9979395196,Set,2017_03_08_2349,
3,"[2.7, 2.7]",1,13,53,12,0,0,0,0,4,0,4,0,,,,,,,DMA,f,19,59.9979395196,Set,2017_03_08_2349,
3,"[2.7, 2.7]",1,13,53,12,1,0,1,0,4,0,4,0,,,,,,,DMA,f,19,59.9979395196,Set,2017_03_08_2349,
3,"[2.7, 2.7]",1,13,53,12,2,0,2,0,4,0,4,0,,,,,,,DMA,f,19,59.9979395196,Set,2017_03_08_2349,
3,"[2.7, 2.7]",1,13,53,12,,,,,0,0,0,0,,,right,1.37548084185,,,DMA,f,19,59.9979395196,Set,2017_03_08_2349,
3,"[2.7, 2.7]",1,13,53,12,,,,,1,0,1,0,,,down,0.825486506335,,,DMA,f,19,59.9979395196,Set,2017_03_08_2349,
3,"[2.7, 2.7]",1,13,53,12,,,,,2,0,2,0,,,down,0.550216179108,,,DMA,f,19,59.9979395196,Set,2017_03_08_2349,
3,"[2.7, 2.7]",1,13,53,12,,,,,3,0,3,0,,,down,0.642169929808,space,0.642164798221,DMA,f,19,59.9979395196,Set,2017_03_08_2349,
1,"[2.9, 2.9]",1,14,54,30,0,0,0,0,3,0,3,0,,,,,,,DMA,f,19,59.9979395196,Set,2017_03_08_2349,
1,"[2.9, 2.9]",1,14,54,30,,,,,0,0,0,0,,,left,1.16695028683,,,DMA,f,19,59.9979395196,Set,2017_03_08_2349,
1,"[2.9, 2.9]",1,14,54,30,,,,,1,0,1,0,,,down,0.625463769422,,,DMA,f,19,59.9979395196,Set,2017_03_08_2349,
1,"[2.9, 2.9]",1,14,54,30,,,,,2,0,2,0,,,down,0.575491341995,,,DMA,f,19,59.9979395196,Set,2017_03_08_2349,
1,"[2.9, 2.9]",1,14,54,30,,,,,3,0,3,0,,,right,2.37547413132,,,DMA,f,19,59.9979395196,Set,2017_03_08_2349,
1,"[2.9, 2.9]",1,14,54,30,,,,,4,0,4,0,,,down,0.783556499169,,,DMA,f,19,59.9979395196,Set,2017_03_08_2349,
1,"[2.9, 2.9]",1,14,54,30,,,,,5,0,5,0,,,down,0.0588173528668,,,DMA,f,19,59.9979395196,Set,2017_03_08_2349,
