number_of_fixational_trials,size,estimating_threshold.thisRepN,estimating_threshold.thisTrialN,estimating_threshold.thisN,estimating_threshold.thisIndex,trials_2.thisRepN,trials_2.thisTrialN,trials_2.thisN,trials_2.thisIndex,trials.thisRepN,trials.thisTrialN,trials.thisN,trials.thisIndex,trials_3.thisRepN,trials_3.thisTrialN,trials_3.thisN,trials_3.thisIndex,rating_up.response,rating_up.rt,rating_down.response,rating_down.rt,answer.keys,answer.rt,participant,gender,age,frameRate,expName,date,
,,0,0,0,0,,,,,,,,,,,,,0.05,19.918,0.11,40.584,,,EZV,f,19,59.9948372583,Set,2017_05_17_1327,
,,1,0,1,0,,,,,,,,,,,,,0.08,33.73,0.1,29.73,,,EZV,f,19,59.9948372583,Set,2017_05_17_1327,
,,2,0,2,0,,,,,,,,,,,,,0.02,13.98,0.09,41.999,,,EZV,f,19,59.9948372583,Set,2017_05_17_1327,
2,3,,,,,0,0,0,17,,,,,0,0,0,0,,,,,down,5.10021047495,EZV,f,19,59.9948372583,Set,2017_05_17_1327,
2,3,,,,,0,0,0,17,,,,,1,0,1,0,,,,,right,4.51686562839,EZV,f,19,59.9948372583,Set,2017_05_17_1327,
2,3,,,,,0,0,0,17,,,,,2,0,2,0,,,,,down,3.86685800992,EZV,f,19,59.9948372583,Set,2017_05_17_1327,
2,3,,,,,0,0,0,17,,,,,3,0,3,0,,,,,left,1.20022910667,EZV,f,19,59.9948372583,Set,2017_05_17_1327,
2,3,,,,,0,0,0,17,,,,,4,0,4,0,,,,,left,2.11689176015,EZV,f,19,59.9948372583,Set,2017_05_17_1327,
2,3,,,,,0,0,0,17,,,,,5,0,5,0,,,,,down,1.13356712423,EZV,f,19,59.9948372583,Set,2017_05_17_1327,
2,3,,,,,0,0,0,17,,,,,6,0,6,0,,,,,left,2.7502319093,EZV,f,19,59.9948372583,Set,2017_05_17_1327,
2,3,,,,,0,0,0,17,,,,,7,0,7,0,,,,,right,2.0668818522,EZV,f,19,59.9948372583,Set,2017_05_17_1327,
2,3,,,,,0,0,0,17,,,,,8,0,8,0,,,,,down,1.68354940042,EZV,f,19,59.9948372583,Set,2017_05_17_1327,
2,3,,,,,0,0,0,17,,,,,9,0,9,0,,,,,down,1.65021485655,EZV,f,19,59.9948372583,Set,2017_05_17_1327,
2,3,,,,,0,0,0,17,,,,,10,0,10,0,,,,,right,1.78356921635,EZV,f,19,59.9948372583,Set,2017_05_17_1327,
2,3,,,,,0,0,0,17,,,,,11,0,11,0,,,,,down,0.700267001637,EZV,f,19,59.9948372583,Set,2017_05_17_1327,
2,3,,,,,0,0,0,17,,,,,12,0,12,0,,,,,down,1.05032451512,EZV,f,19,59.9948372583,Set,2017_05_17_1327,
2,3,,,,,0,0,0,17,,,,,13,0,13,0,,,,,right,0.966904668108,EZV,f,19,59.9948372583,Set,2017_05_17_1327,
2,3,,,,,0,0,0,17,,,,,14,0,14,0,,,,,right,1.50024158042,EZV,f,19,59.9948372583,Set,2017_05_17_1327,
2,3,,,,,0,0,0,17,,,,,15,0,15,0,,,,,down,0.800252080488,EZV,f,19,59.9948372583,Set,2017_05_17_1327,
2,3,,,,,0,0,0,17,,,,,16,0,16,0,,,,,right,1.05022938296,EZV,f,19,59.9948372583,Set,2017_05_17_1327,
2,3,,,,,0,0,0,17,,,,,17,0,17,0,,,,,right,0.950232067204,EZV,f,19,59.9948372583,Set,2017_05_17_1327,
2,3,,,,,0,0,0,17,,,,,18,0,18,0,,,,,down,2.05025148837,EZV,f,19,59.9948372583,Set,2017_05_17_1327,
2,3,,,,,0,0,0,17,,,,,19,0,19,0,,,,,down,1.48355990049,EZV,f,19,59.9948372583,Set,2017_05_17_1327,
2,3,,,,,0,0,0,17,,,,,20,0,20,0,,,,,right,1.66698377384,EZV,f,19,59.9948372583,Set,2017_05_17_1327,
2,3,,,,,0,0,0,17,,,,,21,0,21,0,,,,,down,0.683549005684,EZV,f,19,59.9948372583,Set,2017_05_17_1327,
2,3,,,,,0,0,0,17,,,,,22,0,22,0,,,,,down,1.63356159788,EZV,f,19,59.9948372583,Set,2017_05_17_1327,
5,3,,,,,0,1,1,20,,,,,0,0,0,0,,,,,right,2.18354387407,EZV,f,19,59.9948372583,Set,2017_05_17_1327,
5,3,,,,,0,1,1,20,,,,,1,0,1,0,,,,,left,3.18353834772,EZV,f,19,59.9948372583,Set,2017_05_17_1327,
5,3,,,,,0,1,1,20,,,,,2,0,2,0,,,,,right,0.933531834511,EZV,f,19,59.9948372583,Set,2017_05_17_1327,
5,3,,,,,0,1,1,20,,,,,3,0,3,0,,,,,down,0.766887931153,EZV,f,19,59.9948372583,Set,2017_05_17_1327,
5,3,,,,,0,1,1,20,,,,,4,0,4,0,,,,,right,0.76692306294,EZV,f,19,59.9948372583,Set,2017_05_17_1327,
5,3,,,,,0,1,1,20,,,,,5,0,5,0,,,,,down,0.933565782121,EZV,f,19,59.9948372583,Set,2017_05_17_1327,
5,3,,,,,0,1,1,20,,,,,6,0,6,0,,,,,right,0.966885325906,EZV,f,19,59.9948372583,Set,2017_05_17_1327,
5,3,,,,,0,1,1,20,,,,,7,0,7,0,,,,,left,2.10021955395,EZV,f,19,59.9948372583,Set,2017_05_17_1327,
5,3,,,,,0,1,1,20,,,,,8,0,8,0,,,,,right,0.800238659343,EZV,f,19,59.9948372583,Set,2017_05_17_1327,
5,3,,,,,0,1,1,20,,,,,9,0,9,0,,,,,down,0.933568545268,EZV,f,19,59.9948372583,Set,2017_05_17_1327,
5,3,,,,,0,1,1,20,,,,,10,0,10,0,,,,,right,1.10022389609,EZV,f,19,59.9948372583,Set,2017_05_17_1327,
5,3,,,,,0,1,1,20,,,,,11,0,11,0,,,,,down,1.1335588347,EZV,f,19,59.9948372583,Set,2017_05_17_1327,
5,3,,,,,0,1,1,20,,,,,12,0,12,0,,,,,right,1.13355370308,EZV,f,19,59.9948372583,Set,2017_05_17_1327,
5,3,,,,,0,1,1,20,,,,,13,0,13,0,,,,,down,0.816895865428,EZV,f,19,59.9948372583,Set,2017_05_17_1327,
5,3,,,,,0,1,1,20,,,,,14,0,14,0,,,,,right,0.666902852303,EZV,f,19,59.9948372583,Set,2017_05_17_1327,
5,3,,,,,0,1,1,20,,,,,15,0,15,0,,,,,right,1.00022579083,EZV,f,19,59.9948372583,Set,2017_05_17_1327,
5,3,,,,,0,1,1,20,,,,,16,0,16,0,,,,,down,0.733566808427,EZV,f,19,59.9948372583,Set,2017_05_17_1327,
5,3,,,,,0,1,1,20,,,,,17,0,17,0,,,,,right,0.600237317209,EZV,f,19,59.9948372583,Set,2017_05_17_1327,
5,3,,,,,0,1,1,20,,,,,18,0,18,0,,,,,left,1.06692172083,EZV,f,19,59.9948372583,Set,2017_05_17_1327,
5,3,,,,,0,1,1,20,,,,,19,0,19,0,,,,,left,1.28355737418,EZV,f,19,59.9948372583,Set,2017_05_17_1327,
5,3,,,,,0,1,1,20,,,,,20,0,20,0,,,,,right,0.81690139175,EZV,f,19,59.9948372583,Set,2017_05_17_1327,
5,3,,,,,0,1,1,20,,,,,21,0,21,0,,,,,right,1.06689408908,EZV,f,19,59.9948372583,Set,2017_05_17_1327,
5,3,,,,,0,1,1,20,,,,,22,0,22,0,,,,,down,1.10007271098,EZV,f,19,59.9948372583,Set,2017_05_17_1327,
5,3,,,,,0,1,1,20,,,,,23,0,23,0,,,,,right,0.70024331726,EZV,f,19,59.9948372583,Set,2017_05_17_1327,
5,3,,,,,0,1,1,20,,,,,24,0,24,0,,,,,right,0.9168880496,EZV,f,19,59.9948372583,Set,2017_05_17_1327,
5,3,,,,,0,1,1,20,,,,,25,0,25,0,,,,,right,0.600242054119,EZV,f,19,59.9948372583,Set,2017_05_17_1327,
5,3,,,,,0,1,1,20,,,,,26,0,26,0,,,,,down,0.93354328195,EZV,f,19,59.9948372583,Set,2017_05_17_1327,
5,3,,,,,0,1,1,20,,,,,27,0,27,0,,,,,right,0.466910983931,EZV,f,19,59.9948372583,Set,2017_05_17_1327,
5,3,,,,,0,1,1,20,,,,,28,0,28,0,,,,,right,0.650246040954,EZV,f,19,59.9948372583,Set,2017_05_17_1327,
5,3,,,,,0,1,1,20,,,,,29,0,29,0,,,,,right,1.00023605407,EZV,f,19,59.9948372583,Set,2017_05_17_1327,
5,3,,,,,0,1,1,20,,,,,30,0,30,0,,,,,right,1.11690597076,EZV,f,19,59.9948372583,Set,2017_05_17_1327,
5,3,,,,,0,1,1,20,,,,,31,0,31,0,,,,,down,0.600253106822,EZV,f,19,59.9948372583,Set,2017_05_17_1327,
5,3,,,,,0,1,1,20,,,,,32,0,32,0,,,,,right,0.466914931312,EZV,f,19,59.9948372583,Set,2017_05_17_1327,
5,3,,,,,0,1,1,20,,,,,33,0,33,0,,,,,right,0.616914655024,EZV,f,19,59.9948372583,Set,2017_05_17_1327,
5,3,,,,,0,1,1,20,,,,,34,0,34,0,,,,,down,1.03354928203,EZV,f,19,59.9948372583,Set,2017_05_17_1327,
5,3,,,,,0,1,1,20,,,,,35,0,35,0,,,,,right,0.500211185485,EZV,f,19,59.9948372583,Set,2017_05_17_1327,
5,3,,,,,0,1,1,20,,,,,36,0,36,0,,,,,right,0.650226303987,EZV,f,19,59.9948372583,Set,2017_05_17_1327,
5,3,,,,,0,1,1,20,,,,,37,0,37,0,,,,,right,1.0002443436,EZV,f,19,59.9948372583,Set,2017_05_17_1327,
5,3,,,,,0,1,1,20,,,,,38,0,38,0,,,,,right,0.900238738308,EZV,f,19,59.9948372583,Set,2017_05_17_1327,
5,3,,,,,0,1,1,20,,,,,39,0,39,0,,,,,right,0.783563295263,EZV,f,19,59.9948372583,Set,2017_05_17_1327,
5,3,,,,,0,1,1,20,,,,,40,0,40,0,,,,,down,0.700449371128,EZV,f,19,59.9948372583,Set,2017_05_17_1327,
5,3,,,,,0,1,1,20,,,,,41,0,41,0,,,,,right,0.833626493026,EZV,f,19,59.9948372583,Set,2017_05_17_1327,
5,3,,,,,0,1,1,20,,,,,42,0,42,0,,,,,right,0.76684924672,EZV,f,19,59.9948372583,Set,2017_05_17_1327,
5,3,,,,,0,1,1,20,,,,,43,0,43,0,,,,,right,0.750272567413,EZV,f,19,59.9948372583,Set,2017_05_17_1327,
5,3,,,,,0,1,1,20,,,,,44,0,44,0,,,,,left,1.3669713001,EZV,f,19,59.9948372583,Set,2017_05_17_1327,
5,3,,,,,0,1,1,20,,,,,45,0,45,0,,,,,right,1.30025839631,EZV,f,19,59.9948372583,Set,2017_05_17_1327,
5,3,,,,,0,1,1,20,,,,,46,0,46,0,,,,,right,0.5168877338,EZV,f,19,59.9948372583,Set,2017_05_17_1327,
5,3,,,,,0,1,1,20,,,,,47,0,47,0,,,,,down,1.08359234806,EZV,f,19,59.9948372583,Set,2017_05_17_1327,
5,3,,,,,0,1,1,20,,,,,48,0,48,0,,,,,right,0.516968655342,EZV,f,19,59.9948372583,Set,2017_05_17_1327,
5,3,,,,,0,1,1,20,,,,,49,0,49,0,,,,,left,1.83356254525,EZV,f,19,59.9948372583,Set,2017_05_17_1327,
5,3,,,,,0,1,1,20,,,,,50,0,50,0,,,,,down,0.733577466366,EZV,f,19,59.9948372583,Set,2017_05_17_1327,
5,3,,,,,0,1,1,20,,,,,51,0,51,0,,,,,right,0.533610861341,EZV,f,19,59.9948372583,Set,2017_05_17_1327,
5,3,,,,,0,1,1,20,,,,,52,0,52,0,,,,,left,1.11688623377,EZV,f,19,59.9948372583,Set,2017_05_17_1327,
5,3,,,,,0,1,1,20,,,,,53,0,53,0,,,,,right,0.61690044438,EZV,f,19,59.9948372583,Set,2017_05_17_1327,
5,3,,,,,0,1,1,20,,,,,54,0,54,0,,,,,down,0.650233409309,EZV,f,19,59.9948372583,Set,2017_05_17_1327,
5,3,,,,,0,1,1,20,,,,,55,0,55,0,,,,,left,1.78362921669,EZV,f,19,59.9948372583,Set,2017_05_17_1327,
5,3,,,,,0,1,1,20,,,,,56,0,56,0,,,,,right,0.783603558637,EZV,f,19,59.9948372583,Set,2017_05_17_1327,
5,3,,,,,0,1,1,20,,,,,57,0,57,0,,,,,left,0.800216948672,EZV,f,19,59.9948372583,Set,2017_05_17_1327,
5,3,,,,,0,1,1,20,,,,,58,0,58,0,,,,,left,2.31686073361,EZV,f,19,59.9948372583,Set,2017_05_17_1327,
5,3,,,,,0,1,1,20,,,,,59,0,59,0,,,,,right,0.783661585301,EZV,f,19,59.9948372583,Set,2017_05_17_1327,
5,3,,,,,0,1,1,20,,,,,60,0,60,0,,,,,right,0.766913983971,EZV,f,19,59.9948372583,Set,2017_05_17_1327,
5,3,,,,,0,1,1,20,,,,,61,0,61,0,,,,,down,0.633563176816,EZV,f,19,59.9948372583,Set,2017_05_17_1327,
5,3,,,,,0,1,1,20,,,,,62,0,62,0,,,,,right,1.38356969002,EZV,f,19,59.9948372583,Set,2017_05_17_1327,
5,3,,,,,0,1,1,20,,,,,63,0,63,0,,,,,down,0.500234475126,EZV,f,19,59.9948372583,Set,2017_05_17_1327,
5,3,,,,,0,1,1,20,,,,,64,0,64,0,,,,,down,0.633652387914,EZV,f,19,59.9948372583,Set,2017_05_17_1327,
7,2,,,,,0,2,2,14,,,,,0,0,0,0,,,,,right,1.73354786096,EZV,f,19,59.9948372583,Set,2017_05_17_1327,
7,2,,,,,0,2,2,14,,,,,1,0,1,0,,,,,down,1.05020530388,EZV,f,19,59.9948372583,Set,2017_05_17_1327,
7,2,,,,,0,2,2,14,,,,,2,0,2,0,,,,,down,0.633553703083,EZV,f,19,59.9948372583,Set,2017_05_17_1327,
7,2,,,,,0,2,2,14,,,,,3,0,3,0,,,,,right,0.516888918006,EZV,f,19,59.9948372583,Set,2017_05_17_1327,
7,2,,,,,0,2,2,14,,,,,4,0,4,0,,,,,down,0.866894720675,EZV,f,19,59.9948372583,Set,2017_05_17_1327,
7,2,,,,,0,2,2,14,,,,,5,0,5,0,,,,,down,1.58358958489,EZV,f,19,59.9948372583,Set,2017_05_17_1327,
5,1,,,,,0,3,3,4,,,,,0,0,0,0,,,,,down,1.16690403654,EZV,f,19,59.9948372583,Set,2017_05_17_1327,
5,1,,,,,0,3,3,4,,,,,1,0,1,0,,,,,left,0.950244698877,EZV,f,19,59.9948372583,Set,2017_05_17_1327,
5,1,,,,,0,3,3,4,,,,,2,0,2,0,,,,,right,0.766861088923,EZV,f,19,59.9948372583,Set,2017_05_17_1327,
5,1,,,,,0,3,3,4,,,,,3,0,3,0,,,,,down,0.483542926697,EZV,f,19,59.9948372583,Set,2017_05_17_1327,
5,1,,,,,0,3,3,4,,,,,4,0,4,0,,,,,right,1.00022381716,EZV,f,19,59.9948372583,Set,2017_05_17_1327,
5,1,,,,,0,3,3,4,,,,,5,0,5,0,,,,,down,0.450241146202,EZV,f,19,59.9948372583,Set,2017_05_17_1327,
5,1,,,,,0,3,3,4,,,,,6,0,6,0,,,,,right,0.883660874766,EZV,f,19,59.9948372583,Set,2017_05_17_1327,
5,1,,,,,0,3,3,4,,,,,7,0,7,0,,,,,down,0.500226975069,EZV,f,19,59.9948372583,Set,2017_05_17_1327,
5,1,,,,,0,3,3,4,,,,,8,0,8,0,,,,,down,0.400237159338,EZV,f,19,59.9948372583,Set,2017_05_17_1327,
1,3,,,,,0,4,4,16,,,,,0,0,0,0,,,,,right,0.950213119708,EZV,f,19,59.9948372583,Set,2017_05_17_1327,
1,3,,,,,0,4,4,16,,,,,1,0,1,0,,,,,down,0.900228475075,EZV,f,19,59.9948372583,Set,2017_05_17_1327,
1,3,,,,,0,4,4,16,,,,,2,0,2,0,,,,,right,0.550230961933,EZV,f,19,59.9948372583,Set,2017_05_17_1327,
1,3,,,,,0,4,4,16,,,,,3,0,3,0,,,,,right,0.633591598074,EZV,f,19,59.9948372583,Set,2017_05_17_1327,
1,3,,,,,0,4,4,16,,,,,4,0,4,0,,,,,down,1.05022819873,EZV,f,19,59.9948372583,Set,2017_05_17_1327,
1,3,,,,,0,4,4,16,,,,,5,0,5,0,,,,,left,0.983568190015,EZV,f,19,59.9948372583,Set,2017_05_17_1327,
1,3,,,,,0,4,4,16,,,,,6,0,6,0,,,,,right,0.550226619787,EZV,f,19,59.9948372583,Set,2017_05_17_1327,
1,3,,,,,0,4,4,16,,,,,7,0,7,0,,,,,left,1.65020696179,EZV,f,19,59.9948372583,Set,2017_05_17_1327,
1,3,,,,,0,4,4,16,,,,,8,0,8,0,,,,,left,1.10024008041,EZV,f,19,59.9948372583,Set,2017_05_17_1327,
1,3,,,,,0,4,4,16,,,,,9,0,9,0,,,,,down,0.583597874414,EZV,f,19,59.9948372583,Set,2017_05_17_1327,
1,3,,,,,0,4,4,16,,,,,10,0,10,0,,,,,down,0.916905023361,EZV,f,19,59.9948372583,Set,2017_05_17_1327,
1,3,,,,,0,4,4,16,,,,,11,0,11,0,,,,,left,1.00022381716,EZV,f,19,59.9948372583,Set,2017_05_17_1327,
1,3,,,,,0,4,4,16,,,,,12,0,12,0,,,,,left,0.933578019001,EZV,f,19,59.9948372583,Set,2017_05_17_1327,
1,3,,,,,0,4,4,16,,,,,13,0,13,0,,,,,right,0.583595900709,EZV,f,19,59.9948372583,Set,2017_05_17_1327,
1,3,,,,,0,4,4,16,,,,,14,0,14,0,,,,,left,1.15022630402,EZV,f,19,59.9948372583,Set,2017_05_17_1327,
1,3,,,,,0,4,4,16,,,,,15,0,15,0,,,,,right,0.616891365382,EZV,f,19,59.9948372583,Set,2017_05_17_1327,
1,3,,,,,0,4,4,16,,,,,16,0,16,0,,,,,down,0.66686495734,EZV,f,19,59.9948372583,Set,2017_05_17_1327,
1,3,,,,,0,4,4,16,,,,,17,0,17,0,,,,,down,0.983570953191,EZV,f,19,59.9948372583,Set,2017_05_17_1327,
1,3,,,,,0,4,4,16,,,,,18,0,18,0,,,,,left,0.816889549606,EZV,f,19,59.9948372583,Set,2017_05_17_1327,
1,3,,,,,0,4,4,16,,,,,19,0,19,0,,,,,right,0.616900444409,EZV,f,19,59.9948372583,Set,2017_05_17_1327,
1,3,,,,,0,4,4,16,,,,,20,0,20,0,,,,,down,0.633454623545,EZV,f,19,59.9948372583,Set,2017_05_17_1327,
1,3,,,,,0,4,4,16,,,,,21,0,21,0,,,,,left,0.633598703338,EZV,f,19,59.9948372583,Set,2017_05_17_1327,
1,3,,,,,0,4,4,16,,,,,22,0,22,0,,,,,down,1.33357951904,EZV,f,19,59.9948372583,Set,2017_05_17_1327,
1,3,,,,,0,4,4,16,,,,,23,0,23,0,,,,,right,0.533567045291,EZV,f,19,59.9948372583,Set,2017_05_17_1327,
1,3,,,,,0,4,4,16,,,,,24,0,24,0,,,,,right,0.866910115525,EZV,f,19,59.9948372583,Set,2017_05_17_1327,
1,3,,,,,0,4,4,16,,,,,25,0,25,0,,,,,down,0.700238975114,EZV,f,19,59.9948372583,Set,2017_05_17_1327,
1,3,,,,,0,4,4,16,,,,,26,0,26,0,,,,,left,0.800229185581,EZV,f,19,59.9948372583,Set,2017_05_17_1327,
1,3,,,,,0,4,4,16,,,,,27,0,27,0,,,,,down,1.03357178214,EZV,f,19,59.9948372583,Set,2017_05_17_1327,
1,3,,,,,0,4,4,16,,,,,28,0,28,0,,,,,left,0.600220738183,EZV,f,19,59.9948372583,Set,2017_05_17_1327,
1,3,,,,,0,4,4,16,,,,,29,0,29,0,,,,,right,2.2835135581,EZV,f,19,59.9948372583,Set,2017_05_17_1327,
1,3,,,,,0,4,4,16,,,,,30,0,30,0,,,,,down,0.766902141797,EZV,f,19,59.9948372583,Set,2017_05_17_1327,
1,3,,,,,0,4,4,16,,,,,31,0,31,0,,,,,right,0.883464689396,EZV,f,19,59.9948372583,Set,2017_05_17_1327,
1,3,,,,,0,4,4,16,,,,,32,0,32,0,,,,,down,1.15021880396,EZV,f,19,59.9948372583,Set,2017_05_17_1327,
1,3,,,,,0,4,4,16,,,,,33,0,33,0,,,,,right,0.550229777698,EZV,f,19,59.9948372583,Set,2017_05_17_1327,
1,3,,,,,0,4,4,16,,,,,34,0,34,0,,,,,left,0.66689495754,EZV,f,19,59.9948372583,Set,2017_05_17_1327,
1,3,,,,,0,4,4,16,,,,,35,0,35,0,,,,,right,0.550225040817,EZV,f,19,59.9948372583,Set,2017_05_17_1327,
1,3,,,,,0,4,4,16,,,,,36,0,36,0,,,,,left,0.433553545183,EZV,f,19,59.9948372583,Set,2017_05_17_1327,
1,3,,,,,0,4,4,16,,,,,37,0,37,0,,,,,left,1.3333438597,EZV,f,19,59.9948372583,Set,2017_05_17_1327,
1,3,,,,,0,4,4,16,,,,,38,0,38,0,,,,,down,0.700217659207,EZV,f,19,59.9948372583,Set,2017_05_17_1327,
1,3,,,,,0,4,4,16,,,,,39,0,39,0,,,,,left,0.550238856697,EZV,f,19,59.9948372583,Set,2017_05_17_1327,
1,3,,,,,0,4,4,16,,,,,40,0,40,0,,,,,right,0.66690877339,EZV,f,19,59.9948372583,Set,2017_05_17_1327,
1,3,,,,,0,4,4,16,,,,,41,0,41,0,,,,,down,0.700234238262,EZV,f,19,59.9948372583,Set,2017_05_17_1327,
1,3,,,,,0,4,4,16,,,,,42,0,42,0,,,,,right,0.533417044353,EZV,f,19,59.9948372583,Set,2017_05_17_1327,
1,3,,,,,0,4,4,16,,,,,43,0,43,0,,,,,right,0.516961155285,EZV,f,19,59.9948372583,Set,2017_05_17_1327,
1,3,,,,,0,4,4,16,,,,,44,0,44,0,,,,,right,0.516904707591,EZV,f,19,59.9948372583,Set,2017_05_17_1327,
1,3,,,,,0,4,4,16,,,,,45,0,45,0,,,,,down,1.63353712406,EZV,f,19,59.9948372583,Set,2017_05_17_1327,
1,3,,,,,0,4,4,16,,,,,46,0,46,0,,,,,right,0.80024063302,EZV,f,19,59.9948372583,Set,2017_05_17_1327,
1,3,,,,,0,4,4,16,,,,,47,0,47,0,,,,,left,0.616889391677,EZV,f,19,59.9948372583,Set,2017_05_17_1327,
1,3,,,,,0,4,4,16,,,,,48,0,48,0,,,,,left,1.08354537407,EZV,f,19,59.9948372583,Set,2017_05_17_1327,
1,3,,,,,0,4,4,16,,,,,49,0,49,0,,,,,left,0.35028054117,EZV,f,19,59.9948372583,Set,2017_05_17_1327,
1,3,,,,,0,4,4,16,,,,,50,0,50,0,,,,,left,0.58355366363,EZV,f,19,59.9948372583,Set,2017_05_17_1327,
1,3,,,,,0,4,4,16,,,,,51,0,51,0,,,,,down,0.650229461928,EZV,f,19,59.9948372583,Set,2017_05_17_1327,
1,3,,,,,0,4,4,16,,,,,52,0,52,0,,,,,left,1.18354742674,EZV,f,19,59.9948372583,Set,2017_05_17_1327,
1,3,,,,,0,4,4,16,,,,,53,0,53,0,,,,,left,0.466937826219,EZV,f,19,59.9948372583,Set,2017_05_17_1327,
1,3,,,,,0,4,4,16,,,,,54,0,54,0,,,,,left,0.300259975251,EZV,f,19,59.9948372583,Set,2017_05_17_1327,
1,3,,,,,0,4,4,16,,,,,55,0,55,0,,,,,down,0.783399478445,EZV,f,19,59.9948372583,Set,2017_05_17_1327,
1,3,,,,,0,4,4,16,,,,,56,0,56,0,,,,,left,0.466893615434,EZV,f,19,59.9948372583,Set,2017_05_17_1327,
1,3,,,,,0,4,4,16,,,,,57,0,57,0,,,,,down,0.966929141956,EZV,f,19,59.9948372583,Set,2017_05_17_1327,
1,3,,,,,0,4,4,16,,,,,58,0,58,0,,,,,right,0.50022618557,EZV,f,19,59.9948372583,Set,2017_05_17_1327,
1,3,,,,,0,4,4,16,,,,,59,0,59,0,,,,,down,0.516892075917,EZV,f,19,59.9948372583,Set,2017_05_17_1327,
1,3,,,,,0,4,4,16,,,,,60,0,60,0,,,,,left,0.600521924207,EZV,f,19,59.9948372583,Set,2017_05_17_1327,
1,3,,,,,0,4,4,16,,,,,61,0,61,0,,,,,down,2.03353901877,EZV,f,19,59.9948372583,Set,2017_05_17_1327,
1,3,,,,,0,4,4,16,,,,,62,0,62,0,,,,,left,0.400233211956,EZV,f,19,59.9948372583,Set,2017_05_17_1327,
1,3,,,,,0,4,4,16,,,,,63,0,63,0,,,,,right,0.900312554528,EZV,f,19,59.9948372583,Set,2017_05_17_1327,
1,3,,,,,0,4,4,16,,,,,64,0,64,0,,,,,left,0.533560334705,EZV,f,19,59.9948372583,Set,2017_05_17_1327,
1,3,,,,,0,4,4,16,,,,,65,0,65,0,,,,,left,1.03355165044,EZV,f,19,59.9948372583,Set,2017_05_17_1327,
1,3,,,,,0,4,4,16,,,,,66,0,66,0,,,,,left,0.483535821404,EZV,f,19,59.9948372583,Set,2017_05_17_1327,
1,3,,,,,0,4,4,16,,,,,67,0,67,0,,,,,left,0.600254291028,EZV,f,19,59.9948372583,Set,2017_05_17_1327,
1,3,,,,,0,4,4,16,,,,,68,0,68,0,,,,,left,0.366951563134,EZV,f,19,59.9948372583,Set,2017_05_17_1327,
1,3,,,,,0,4,4,16,,,,,69,0,69,0,,,,,left,1.60020731704,EZV,f,19,59.9948372583,Set,2017_05_17_1327,
1,3,,,,,0,4,4,16,,,,,70,0,70,0,,,,,left,1.10021915921,EZV,f,19,59.9948372583,Set,2017_05_17_1327,
1,3,,,,,0,4,4,16,,,,,71,0,71,0,,,,,left,0.600233369827,EZV,f,19,59.9948372583,Set,2017_05_17_1327,
1,3,,,,,0,4,4,16,,,,,72,0,72,0,,,,,down,1.08356234789,EZV,f,19,59.9948372583,Set,2017_05_17_1327,
1,3,,,,,0,4,4,16,,,,,73,0,73,0,,,,,down,0.850227251358,EZV,f,19,59.9948372583,Set,2017_05_17_1327,
2,1,,,,,0,5,5,1,,,,,0,0,0,0,,,,,right,0.966907036549,EZV,f,19,59.9948372583,Set,2017_05_17_1327,
2,1,,,,,0,5,5,1,,,,,1,0,1,0,,,,,down,1.18352374237,EZV,f,19,59.9948372583,Set,2017_05_17_1327,
2,1,,,,,0,5,5,1,,,,,2,0,2,0,,,,,down,0.550286620157,EZV,f,19,59.9948372583,Set,2017_05_17_1327,
4,3,,,,,0,6,6,19,,,,,0,0,0,0,,,,,down,1.50022579083,EZV,f,19,59.9948372583,Set,2017_05_17_1327,
4,3,,,,,0,6,6,19,,,,,1,0,1,0,,,,,left,1.38363245357,EZV,f,19,59.9948372583,Set,2017_05_17_1327,
4,3,,,,,0,6,6,19,,,,,2,0,2,0,,,,,down,0.900248606777,EZV,f,19,59.9948372583,Set,2017_05_17_1327,
4,3,,,,,0,6,6,19,,,,,3,0,3,0,,,,,right,0.716900128609,EZV,f,19,59.9948372583,Set,2017_05_17_1327,
4,3,,,,,0,6,6,19,,,,,4,0,4,0,,,,,right,1.01688299692,EZV,f,19,59.9948372583,Set,2017_05_17_1327,
4,3,,,,,0,6,6,19,,,,,5,0,5,0,,,,,down,1.2169171024,EZV,f,19,59.9948372583,Set,2017_05_17_1327,
4,3,,,,,0,6,6,19,,,,,6,0,6,0,,,,,left,1.21689026014,EZV,f,19,59.9948372583,Set,2017_05_17_1327,
4,3,,,,,0,6,6,19,,,,,7,0,7,0,,,,,down,1.06690001019,EZV,f,19,59.9948372583,Set,2017_05_17_1327,
4,3,,,,,0,6,6,19,,,,,8,0,8,0,,,,,right,0.750231119833,EZV,f,19,59.9948372583,Set,2017_05_17_1327,
4,3,,,,,0,6,6,19,,,,,9,0,9,0,,,,,left,0.66689574701,EZV,f,19,59.9948372583,Set,2017_05_17_1327,
4,3,,,,,0,6,6,19,,,,,10,0,10,0,,,,,down,0.633557255729,EZV,f,19,59.9948372583,Set,2017_05_17_1327,
4,3,,,,,0,6,6,19,,,,,11,0,11,0,,,,,down,0.900126237597,EZV,f,19,59.9948372583,Set,2017_05_17_1327,
4,3,,,,,0,6,6,19,,,,,12,0,12,0,,,,,left,0.683552953065,EZV,f,19,59.9948372583,Set,2017_05_17_1327,
4,3,,,,,0,6,6,19,,,,,13,0,13,0,,,,,down,2.28355658471,EZV,f,19,59.9948372583,Set,2017_05_17_1327,
4,3,,,,,0,6,6,19,,,,,14,0,14,0,,,,,right,1.70022200135,EZV,f,19,59.9948372583,Set,2017_05_17_1327,
4,3,,,,,0,6,6,19,,,,,15,0,15,0,,,,,right,0.533615992928,EZV,f,19,59.9948372583,Set,2017_05_17_1327,
4,3,,,,,0,6,6,19,,,,,16,0,16,0,,,,,right,0.550237277756,EZV,f,19,59.9948372583,Set,2017_05_17_1327,
4,3,,,,,0,6,6,19,,,,,17,0,17,0,,,,,down,1.05023490931,EZV,f,19,59.9948372583,Set,2017_05_17_1327,
4,3,,,,,0,6,6,19,,,,,18,0,18,0,,,,,left,0.566961984237,EZV,f,19,59.9948372583,Set,2017_05_17_1327,
4,3,,,,,0,6,6,19,,,,,19,0,19,0,,,,,right,0.416896339098,EZV,f,19,59.9948372583,Set,2017_05_17_1327,
4,3,,,,,0,6,6,19,,,,,20,0,20,0,,,,,left,0.400254922599,EZV,f,19,59.9948372583,Set,2017_05_17_1327,
4,3,,,,,0,6,6,19,,,,,21,0,21,0,,,,,right,0.366732877592,EZV,f,19,59.9948372583,Set,2017_05_17_1327,
4,3,,,,,0,6,6,19,,,,,22,0,22,0,,,,,left,0.316921523452,EZV,f,19,59.9948372583,Set,2017_05_17_1327,
4,3,,,,,0,6,6,19,,,,,23,0,23,0,,,,,right,0.333561755775,EZV,f,19,59.9948372583,Set,2017_05_17_1327,
4,3,,,,,0,6,6,19,,,,,24,0,24,0,,,,,right,1.13354343985,EZV,f,19,59.9948372583,Set,2017_05_17_1327,
4,3,,,,,0,6,6,19,,,,,25,0,25,0,,,,,right,0.466882957466,EZV,f,19,59.9948372583,Set,2017_05_17_1327,
4,3,,,,,0,6,6,19,,,,,26,0,26,0,,,,,right,0.450238383026,EZV,f,19,59.9948372583,Set,2017_05_17_1327,
4,3,,,,,0,6,6,19,,,,,27,0,27,0,,,,,right,0.350219356595,EZV,f,19,59.9948372583,Set,2017_05_17_1327,
4,3,,,,,0,6,6,19,,,,,28,0,28,0,,,,,right,1.36688051006,EZV,f,19,59.9948372583,Set,2017_05_17_1327,
4,3,,,,,0,6,6,19,,,,,29,0,29,0,,,,,left,0.550237277726,EZV,f,19,59.9948372583,Set,2017_05_17_1327,
4,3,,,,,0,6,6,19,,,,,30,0,30,0,,,,,right,0.583561953128,EZV,f,19,59.9948372583,Set,2017_05_17_1327,
4,3,,,,,0,6,6,19,,,,,31,0,31,0,,,,,right,0.900225317135,EZV,f,19,59.9948372583,Set,2017_05_17_1327,
4,3,,,,,0,6,6,19,,,,,32,0,32,0,,,,,right,0.766891878535,EZV,f,19,59.9948372583,Set,2017_05_17_1327,
4,3,,,,,0,6,6,19,,,,,33,0,33,0,,,,,down,0.716916707635,EZV,f,19,59.9948372583,Set,2017_05_17_1327,
4,3,,,,,0,6,6,19,,,,,34,0,34,0,,,,,down,0.716941181483,EZV,f,19,59.9948372583,Set,2017_05_17_1327,
4,3,,,,,0,6,6,19,,,,,35,0,35,0,,,,,right,0.516922865587,EZV,f,19,59.9948372583,Set,2017_05_17_1327,
4,3,,,,,0,6,6,19,,,,,36,0,36,0,,,,,down,1.45030154131,EZV,f,19,59.9948372583,Set,2017_05_17_1327,
4,3,,,,,0,6,6,19,,,,,37,0,37,0,,,,,left,0.816894681222,EZV,f,19,59.9948372583,Set,2017_05_17_1327,
4,3,,,,,0,6,6,19,,,,,38,0,38,0,,,,,left,0.45023561985,EZV,f,19,59.9948372583,Set,2017_05_17_1327,
4,3,,,,,0,6,6,19,,,,,39,0,39,0,,,,,right,0.666896931216,EZV,f,19,59.9948372583,Set,2017_05_17_1327,
4,3,,,,,0,6,6,19,,,,,40,0,40,0,,,,,right,0.783529742417,EZV,f,19,59.9948372583,Set,2017_05_17_1327,
4,3,,,,,0,6,6,19,,,,,41,0,41,0,,,,,down,0.883549558319,EZV,f,19,59.9948372583,Set,2017_05_17_1327,
4,3,,,,,0,6,6,19,,,,,42,0,42,0,,,,,left,0.416904233891,EZV,f,19,59.9948372583,Set,2017_05_17_1327,
4,3,,,,,0,6,6,19,,,,,43,0,43,0,,,,,down,2.58353984772,EZV,f,19,59.9948372583,Set,2017_05_17_1327,
4,3,,,,,0,6,6,19,,,,,44,0,44,0,,,,,right,0.61688662853,EZV,f,19,59.9948372583,Set,2017_05_17_1327,
4,3,,,,,0,6,6,19,,,,,45,0,45,0,,,,,down,0.683565584739,EZV,f,19,59.9948372583,Set,2017_05_17_1327,
4,3,,,,,0,6,6,19,,,,,46,0,46,0,,,,,left,0.983560295252,EZV,f,19,59.9948372583,Set,2017_05_17_1327,
4,3,,,,,0,6,6,19,,,,,47,0,47,0,,,,,down,0.733566808427,EZV,f,19,59.9948372583,Set,2017_05_17_1327,
4,3,,,,,0,6,6,19,,,,,48,0,48,0,,,,,down,0.466896773316,EZV,f,19,59.9948372583,Set,2017_05_17_1327,
1,1,,,,,0,7,7,0,,,,,0,0,0,0,,,,,left,0.750242567272,EZV,f,19,59.9948372583,Set,2017_05_17_1327,
1,1,,,,,0,7,7,0,,,,,1,0,1,0,,,,,left,0.516909444443,EZV,f,19,59.9948372583,Set,2017_05_17_1327,
1,1,,,,,0,7,7,0,,,,,2,0,2,0,,,,,right,0.933560255769,EZV,f,19,59.9948372583,Set,2017_05_17_1327,
1,1,,,,,0,7,7,0,,,,,3,0,3,0,,,,,left,0.600240080414,EZV,f,19,59.9948372583,Set,2017_05_17_1327,
1,1,,,,,0,7,7,0,,,,,4,0,4,0,,,,,right,0.766894246975,EZV,f,19,59.9948372583,Set,2017_05_17_1327,
1,1,,,,,0,7,7,0,,,,,5,0,5,0,,,,,right,1.0502214882,EZV,f,19,59.9948372583,Set,2017_05_17_1327,
1,1,,,,,0,7,7,0,,,,,6,0,6,0,,,,,down,0.450246277789,EZV,f,19,59.9948372583,Set,2017_05_17_1327,
1,1,,,,,0,7,7,0,,,,,7,0,7,0,,,,,right,0.883430347079,EZV,f,19,59.9948372583,Set,2017_05_17_1327,
1,1,,,,,0,7,7,0,,,,,8,0,8,0,,,,,left,0.533553229412,EZV,f,19,59.9948372583,Set,2017_05_17_1327,
1,1,,,,,0,7,7,0,,,,,9,0,9,0,,,,,down,0.416734101309,EZV,f,19,59.9948372583,Set,2017_05_17_1327,
1,1,,,,,0,7,7,0,,,,,10,0,10,0,,,,,right,0.750251251535,EZV,f,19,59.9948372583,Set,2017_05_17_1327,
1,1,,,,,0,7,7,0,,,,,11,0,11,0,,,,,down,0.550089645287,EZV,f,19,59.9948372583,Set,2017_05_17_1327,
1,1,,,,,0,7,7,0,,,,,12,0,12,0,,,,,right,0.600234948768,EZV,f,19,59.9948372583,Set,2017_05_17_1327,
1,1,,,,,0,7,7,0,,,,,13,0,13,0,,,,,right,0.316913233954,EZV,f,19,59.9948372583,Set,2017_05_17_1327,
1,1,,,,,0,7,7,0,,,,,14,0,14,0,,,,,down,0.733567203162,EZV,f,19,59.9948372583,Set,2017_05_17_1327,
1,1,,,,,0,7,7,0,,,,,15,0,15,0,,,,,right,0.550223067141,EZV,f,19,59.9948372583,Set,2017_05_17_1327,
1,1,,,,,0,7,7,0,,,,,16,0,16,0,,,,,down,0.866903404938,EZV,f,19,59.9948372583,Set,2017_05_17_1327,
1,1,,,,,0,7,7,0,,,,,17,0,17,0,,,,,down,0.983564637369,EZV,f,19,59.9948372583,Set,2017_05_17_1327,
5,2,,,,,0,8,8,12,,,,,0,0,0,0,,,,,down,2.48360450604,EZV,f,19,59.9948372583,Set,2017_05_17_1327,
5,2,,,,,0,8,8,12,,,,,1,0,1,0,,,,,right,2.38352903188,EZV,f,19,59.9948372583,Set,2017_05_17_1327,
5,2,,,,,0,8,8,12,,,,,2,0,2,0,,,,,left,1.01689049698,EZV,f,19,59.9948372583,Set,2017_05_17_1327,
5,2,,,,,0,8,8,12,,,,,3,0,3,0,,,,,right,0.400311370322,EZV,f,19,59.9948372583,Set,2017_05_17_1327,
5,2,,,,,0,8,8,12,,,,,4,0,4,0,,,,,down,1.13357975587,EZV,f,19,59.9948372583,Set,2017_05_17_1327,
5,2,,,,,0,8,8,12,,,,,5,0,5,0,,,,,down,0.516882602184,EZV,f,19,59.9948372583,Set,2017_05_17_1327,
5,2,,,,,0,8,8,12,,,,,6,0,6,0,,,,,right,0.616915049759,EZV,f,19,59.9948372583,Set,2017_05_17_1327,
5,2,,,,,0,8,8,12,,,,,7,0,7,0,,,,,down,0.866883667972,EZV,f,19,59.9948372583,Set,2017_05_17_1327,
5,2,,,,,0,8,8,12,,,,,8,0,8,0,,,,,right,0.466900720727,EZV,f,19,59.9948372583,Set,2017_05_17_1327,
5,2,,,,,0,8,8,12,,,,,9,0,9,0,,,,,right,0.433566571563,EZV,f,19,59.9948372583,Set,2017_05_17_1327,
5,2,,,,,0,8,8,12,,,,,10,0,10,0,,,,,down,0.683571111091,EZV,f,19,59.9948372583,Set,2017_05_17_1327,
5,2,,,,,0,8,8,12,,,,,11,0,11,0,,,,,right,0.416877391632,EZV,f,19,59.9948372583,Set,2017_05_17_1327,
5,2,,,,,0,8,8,12,,,,,12,0,12,0,,,,,right,0.500241975154,EZV,f,19,59.9948372583,Set,2017_05_17_1327,
5,2,,,,,0,8,8,12,,,,,13,0,13,0,,,,,right,0.566944220976,EZV,f,19,59.9948372583,Set,2017_05_17_1327,
5,2,,,,,0,8,8,12,,,,,14,0,14,0,,,,,right,0.466890457494,EZV,f,19,59.9948372583,Set,2017_05_17_1327,
5,2,,,,,0,8,8,12,,,,,15,0,15,0,,,,,down,0.633615282422,EZV,f,19,59.9948372583,Set,2017_05_17_1327,
5,2,,,,,0,8,8,12,,,,,16,0,16,0,,,,,right,0.75023704092,EZV,f,19,59.9948372583,Set,2017_05_17_1327,
5,2,,,,,0,8,8,12,,,,,17,0,17,0,,,,,down,1.96693111563,EZV,f,19,59.9948372583,Set,2017_05_17_1327,
5,2,,,,,0,8,8,12,,,,,18,0,18,0,,,,,right,0.883609163953,EZV,f,19,59.9948372583,Set,2017_05_17_1327,
5,2,,,,,0,8,8,12,,,,,19,0,19,0,,,,,down,0.88358429537,EZV,f,19,59.9948372583,Set,2017_05_17_1327,
5,2,,,,,0,8,8,12,,,,,20,0,20,0,,,,,left,0.483606479713,EZV,f,19,59.9948372583,Set,2017_05_17_1327,
5,2,,,,,0,8,8,12,,,,,21,0,21,0,,,,,down,0.400239922514,EZV,f,19,59.9948372583,Set,2017_05_17_1327,
5,2,,,,,0,8,8,12,,,,,22,0,22,0,,,,,right,0.416914102389,EZV,f,19,59.9948372583,Set,2017_05_17_1327,
5,2,,,,,0,8,8,12,,,,,23,0,23,0,,,,,left,0.40022886981,EZV,f,19,59.9948372583,Set,2017_05_17_1327,
5,2,,,,,0,8,8,12,,,,,24,0,24,0,,,,,down,0.800225632935,EZV,f,19,59.9948372583,Set,2017_05_17_1327,
5,2,,,,,0,8,8,12,,,,,25,0,25,0,,,,,right,1.26690174703,EZV,f,19,59.9948372583,Set,2017_05_17_1327,
5,2,,,,,0,8,8,12,,,,,26,0,26,0,,,,,left,1.1835438741,EZV,f,19,59.9948372583,Set,2017_05_17_1327,
5,2,,,,,0,8,8,12,,,,,27,0,27,0,,,,,down,0.666890220629,EZV,f,19,59.9948372583,Set,2017_05_17_1327,
5,2,,,,,0,8,8,12,,,,,28,0,28,0,,,,,left,1.93358117694,EZV,f,19,59.9948372583,Set,2017_05_17_1327,
5,2,,,,,0,8,8,12,,,,,29,0,29,0,,,,,down,1.43355749259,EZV,f,19,59.9948372583,Set,2017_05_17_1327,
5,2,,,,,0,8,8,12,,,,,30,0,30,0,,,,,left,0.633562782081,EZV,f,19,59.9948372583,Set,2017_05_17_1327,
5,2,,,,,0,8,8,12,,,,,31,0,31,0,,,,,right,0.53357375582,EZV,f,19,59.9948372583,Set,2017_05_17_1327,
5,2,,,,,0,8,8,12,,,,,32,0,32,0,,,,,down,0.900213869725,EZV,f,19,59.9948372583,Set,2017_05_17_1327,
5,2,,,,,0,8,8,12,,,,,33,0,33,0,,,,,right,0.41687265475,EZV,f,19,59.9948372583,Set,2017_05_17_1327,
5,2,,,,,0,8,8,12,,,,,34,0,34,0,,,,,right,0.416886075895,EZV,f,19,59.9948372583,Set,2017_05_17_1327,
5,2,,,,,0,8,8,12,,,,,35,0,35,0,,,,,left,0.43356104524,EZV,f,19,59.9948372583,Set,2017_05_17_1327,
5,2,,,,,0,8,8,12,,,,,36,0,36,0,,,,,right,0.750240988302,EZV,f,19,59.9948372583,Set,2017_05_17_1327,
5,2,,,,,0,8,8,12,,,,,37,0,37,0,,,,,down,0.600251527852,EZV,f,19,59.9948372583,Set,2017_05_17_1327,
5,2,,,,,0,8,8,12,,,,,38,0,38,0,,,,,right,0.633550939907,EZV,f,19,59.9948372583,Set,2017_05_17_1327,
5,2,,,,,0,8,8,12,,,,,39,0,39,0,,,,,down,1.46688690485,EZV,f,19,59.9948372583,Set,2017_05_17_1327,
5,2,,,,,0,8,8,12,,,,,40,0,40,0,,,,,right,0.900276633241,EZV,f,19,59.9948372583,Set,2017_05_17_1327,
5,2,,,,,0,8,8,12,,,,,41,0,41,0,,,,,down,0.5835836638,EZV,f,19,59.9948372583,Set,2017_05_17_1327,
5,2,,,,,0,8,8,12,,,,,42,0,42,0,,,,,right,0.466896773316,EZV,f,19,59.9948372583,Set,2017_05_17_1327,
5,2,,,,,0,8,8,12,,,,,43,0,43,0,,,,,right,0.533555203088,EZV,f,19,59.9948372583,Set,2017_05_17_1327,
5,2,,,,,0,8,8,12,,,,,44,0,44,0,,,,,down,0.766888720653,EZV,f,19,59.9948372583,Set,2017_05_17_1327,
5,2,,,,,0,8,8,12,,,,,45,0,45,0,,,,,left,0.683561637328,EZV,f,19,59.9948372583,Set,2017_05_17_1327,
5,2,,,,,0,8,8,12,,,,,46,0,46,0,,,,,left,0.400221764488,EZV,f,19,59.9948372583,Set,2017_05_17_1327,
5,2,,,,,0,8,8,12,,,,,47,0,47,0,,,,,right,0.750215724984,EZV,f,19,59.9948372583,Set,2017_05_17_1327,
5,2,,,,,0,8,8,12,,,,,48,0,48,0,,,,,right,0.800333791471,EZV,f,19,59.9948372583,Set,2017_05_17_1327,
5,2,,,,,0,8,8,12,,,,,49,0,49,0,,,,,right,0.617057155876,EZV,f,19,59.9948372583,Set,2017_05_17_1327,
5,2,,,,,0,8,8,12,,,,,50,0,50,0,,,,,right,0.483754901681,EZV,f,19,59.9948372583,Set,2017_05_17_1327,
5,2,,,,,0,8,8,12,,,,,51,0,51,0,,,,,right,0.650384989189,EZV,f,19,59.9948372583,Set,2017_05_17_1327,
5,2,,,,,0,8,8,12,,,,,52,0,52,0,,,,,left,0.73356167681,EZV,f,19,59.9948372583,Set,2017_05_17_1327,
5,2,,,,,0,8,8,12,,,,,53,0,53,0,,,,,down,0.950284962251,EZV,f,19,59.9948372583,Set,2017_05_17_1327,
5,2,,,,,0,8,8,12,,,,,54,0,54,0,,,,,left,0.583617611352,EZV,f,19,59.9948372583,Set,2017_05_17_1327,
5,2,,,,,0,8,8,12,,,,,55,0,55,0,,,,,right,0.450226540852,EZV,f,19,59.9948372583,Set,2017_05_17_1327,
5,2,,,,,0,8,8,12,,,,,56,0,56,0,,,,,down,0.950213119737,EZV,f,19,59.9948372583,Set,2017_05_17_1327,
5,2,,,,,0,8,8,12,,,,,57,0,57,0,,,,,right,0.333553860983,EZV,f,19,59.9948372583,Set,2017_05_17_1327,
5,2,,,,,0,8,8,12,,,,,58,0,58,0,,,,,right,1.66690719445,EZV,f,19,59.9948372583,Set,2017_05_17_1327,
5,2,,,,,0,8,8,12,,,,,59,0,59,0,,,,,down,0.633549755701,EZV,f,19,59.9948372583,Set,2017_05_17_1327,
5,2,,,,,0,8,8,12,,,,,60,0,60,0,,,,,down,0.983583584835,EZV,f,19,59.9948372583,Set,2017_05_17_1327,
5,2,,,,,0,8,8,12,,,,,61,0,61,0,,,,,left,0.633555676788,EZV,f,19,59.9948372583,Set,2017_05_17_1327,
5,2,,,,,0,8,8,12,,,,,62,0,62,0,,,,,right,1.10023258036,EZV,f,19,59.9948372583,Set,2017_05_17_1327,
5,2,,,,,0,8,8,12,,,,,63,0,63,0,,,,,left,1.70013121134,EZV,f,19,59.9948372583,Set,2017_05_17_1327,
5,2,,,,,0,8,8,12,,,,,64,0,64,0,,,,,down,0.750221646071,EZV,f,19,59.9948372583,Set,2017_05_17_1327,
5,2,,,,,0,8,8,12,,,,,65,0,65,0,,,,,down,1.00022184345,EZV,f,19,59.9948372583,Set,2017_05_17_1327,
5,2,,,,,0,8,8,12,,,,,66,0,66,0,,,,,left,0.633585282223,EZV,f,19,59.9948372583,Set,2017_05_17_1327,
5,2,,,,,0,8,8,12,,,,,67,0,67,0,,,,,right,0.633593177015,EZV,f,19,59.9948372583,Set,2017_05_17_1327,
5,2,,,,,0,8,8,12,,,,,68,0,68,0,,,,,right,0.766889904859,EZV,f,19,59.9948372583,Set,2017_05_17_1327,
5,2,,,,,0,8,8,12,,,,,69,0,69,0,,,,,left,1.01690312862,EZV,f,19,59.9948372583,Set,2017_05_17_1327,
5,2,,,,,0,8,8,12,,,,,70,0,70,0,,,,,right,0.816912839218,EZV,f,19,59.9948372583,Set,2017_05_17_1327,
5,2,,,,,0,8,8,12,,,,,71,0,71,0,,,,,down,1.13351343968,EZV,f,19,59.9948372583,Set,2017_05_17_1327,
5,2,,,,,0,8,8,12,,,,,72,0,72,0,,,,,left,0.483566216339,EZV,f,19,59.9948372583,Set,2017_05_17_1327,
5,2,,,,,0,8,8,12,,,,,73,0,73,0,,,,,down,0.683580584824,EZV,f,19,59.9948372583,Set,2017_05_17_1327,
5,2,,,,,0,8,8,12,,,,,74,0,74,0,,,,,left,1.50033355466,EZV,f,19,59.9948372583,Set,2017_05_17_1327,
5,2,,,,,0,8,8,12,,,,,75,0,75,0,,,,,right,0.883574032167,EZV,f,19,59.9948372583,Set,2017_05_17_1327,
5,2,,,,,0,8,8,12,,,,,76,0,76,0,,,,,down,0.816866259993,EZV,f,19,59.9948372583,Set,2017_05_17_1327,
5,2,,,,,0,8,8,12,,,,,77,0,77,0,,,,,left,1.9002146592,EZV,f,19,59.9948372583,Set,2017_05_17_1327,
5,2,,,,,0,8,8,12,,,,,78,0,78,0,,,,,left,1.70021923815,EZV,f,19,59.9948372583,Set,2017_05_17_1327,
5,2,,,,,0,8,8,12,,,,,79,0,79,0,,,,,down,1.05022306714,EZV,f,19,59.9948372583,Set,2017_05_17_1327,
5,2,,,,,0,8,8,12,,,,,80,0,80,0,,,,,down,1.23354904517,EZV,f,19,59.9948372583,Set,2017_05_17_1327,
5,2,,,,,0,8,8,12,,,,,81,0,81,0,,,,,right,0.800262738427,EZV,f,19,59.9948372583,Set,2017_05_17_1327,
5,2,,,,,0,8,8,12,,,,,82,0,82,0,,,,,right,0.400234001427,EZV,f,19,59.9948372583,Set,2017_05_17_1327,
5,2,,,,,0,8,8,12,,,,,83,0,83,0,,,,,right,0.416918444505,EZV,f,19,59.9948372583,Set,2017_05_17_1327,
5,2,,,,,0,8,8,12,,,,,84,0,84,0,,,,,right,0.900216238137,EZV,f,19,59.9948372583,Set,2017_05_17_1327,
5,2,,,,,0,8,8,12,,,,,85,0,85,0,,,,,left,0.716880391643,EZV,f,19,59.9948372583,Set,2017_05_17_1327,
5,2,,,,,0,8,8,12,,,,,86,0,86,0,,,,,left,0.850203961745,EZV,f,19,59.9948372583,Set,2017_05_17_1327,
5,2,,,,,0,8,8,12,,,,,87,0,87,0,,,,,down,0.533564282086,EZV,f,19,59.9948372583,Set,2017_05_17_1327,
5,2,,,,,0,8,8,12,,,,,88,0,88,0,,,,,left,0.43366880907,EZV,f,19,59.9948372583,Set,2017_05_17_1327,
5,2,,,,,0,8,8,12,,,,,89,0,89,0,,,,,left,1.45022890929,EZV,f,19,59.9948372583,Set,2017_05_17_1327,
5,2,,,,,0,8,8,12,,,,,90,0,90,0,,,,,left,0.900228475046,EZV,f,19,59.9948372583,Set,2017_05_17_1327,
5,2,,,,,0,8,8,12,,,,,91,0,91,0,,,,,left,1.43356538736,EZV,f,19,59.9948372583,Set,2017_05_17_1327,
5,2,,,,,0,8,8,12,,,,,92,0,92,0,,,,,left,0.516889707505,EZV,f,19,59.9948372583,Set,2017_05_17_1327,
5,2,,,,,0,8,8,12,,,,,93,0,93,0,,,,,down,0.433593413851,EZV,f,19,59.9948372583,Set,2017_05_17_1327,
5,2,,,,,0,8,8,12,,,,,94,0,94,0,,,,,left,0.48356621631,EZV,f,19,59.9948372583,Set,2017_05_17_1327,
5,2,,,,,0,8,8,12,,,,,95,0,95,0,,,,,down,0.600225475035,EZV,f,19,59.9948372583,Set,2017_05_17_1327,
5,2,,,,,0,8,8,12,,,,,96,0,96,0,,,,,down,1.05023767249,EZV,f,19,59.9948372583,Set,2017_05_17_1327,
5,2,,,,,0,8,8,12,,,,,97,0,97,0,,,,,left,0.450234435644,EZV,f,19,59.9948372583,Set,2017_05_17_1327,
5,2,,,,,0,8,8,12,,,,,98,0,98,0,,,,,left,0.416891207511,EZV,f,19,59.9948372583,Set,2017_05_17_1327,
5,2,,,,,0,8,8,12,,,,,99,0,99,0,,,,,down,0.583596295444,EZV,f,19,59.9948372583,Set,2017_05_17_1327,
6,2,,,,,0,9,9,13,,,,,0,0,0,0,,,,,right,1.43354525568,EZV,f,19,59.9948372583,Set,2017_05_17_1327,
6,2,,,,,0,9,9,13,,,,,1,0,1,0,,,,,left,1.16688864169,EZV,f,19,59.9948372583,Set,2017_05_17_1327,
6,2,,,,,0,9,9,13,,,,,2,0,2,0,,,,,left,0.500221053982,EZV,f,19,59.9948372583,Set,2017_05_17_1327,
6,2,,,,,0,9,9,13,,,,,3,0,3,0,,,,,left,2.70020147489,EZV,f,19,59.9948372583,Set,2017_05_17_1327,
6,2,,,,,0,9,9,13,,,,,4,0,4,0,,,,,left,0.800433265773,EZV,f,19,59.9948372583,Set,2017_05_17_1327,
6,2,,,,,0,9,9,13,,,,,5,0,5,0,,,,,right,1.03357336111,EZV,f,19,59.9948372583,Set,2017_05_17_1327,
6,2,,,,,0,9,9,13,,,,,6,0,6,0,,,,,right,0.516883786389,EZV,f,19,59.9948372583,Set,2017_05_17_1327,
6,2,,,,,0,9,9,13,,,,,7,0,7,0,,,,,right,0.616910312878,EZV,f,19,59.9948372583,Set,2017_05_17_1327,
6,2,,,,,0,9,9,13,,,,,8,0,8,0,,,,,down,1.06691856295,EZV,f,19,59.9948372583,Set,2017_05_17_1327,
6,2,,,,,0,9,9,13,,,,,9,0,9,0,,,,,right,0.850245014619,EZV,f,19,59.9948372583,Set,2017_05_17_1327,
6,2,,,,,0,9,9,13,,,,,10,0,10,0,,,,,right,1.70021015918,EZV,f,19,59.9948372583,Set,2017_05_17_1327,
6,2,,,,,0,9,9,13,,,,,11,0,11,0,,,,,down,0.483558716282,EZV,f,19,59.9948372583,Set,2017_05_17_1327,
6,2,,,,,0,9,9,13,,,,,12,0,12,0,,,,,down,1.1335900191,EZV,f,19,59.9948372583,Set,2017_05_17_1327,
6,2,,,,,0,9,9,13,,,,,13,0,13,0,,,,,left,1.00024276462,EZV,f,19,59.9948372583,Set,2017_05_17_1327,
6,2,,,,,0,9,9,13,,,,,14,0,14,0,,,,,right,0.866895904881,EZV,f,19,59.9948372583,Set,2017_05_17_1327,
6,2,,,,,0,9,9,13,,,,,15,0,15,0,,,,,left,0.400248606777,EZV,f,19,59.9948372583,Set,2017_05_17_1327,
6,2,,,,,0,9,9,13,,,,,16,0,16,0,,,,,right,0.333564518951,EZV,f,19,59.9948372583,Set,2017_05_17_1327,
6,2,,,,,0,9,9,13,,,,,17,0,17,0,,,,,down,0.650250777835,EZV,f,19,59.9948372583,Set,2017_05_17_1327,
6,2,,,,,0,9,9,13,,,,,18,0,18,0,,,,,left,0.550247146253,EZV,f,19,59.9948372583,Set,2017_05_17_1327,
6,2,,,,,0,9,9,13,,,,,19,0,19,0,,,,,left,1.91688489166,EZV,f,19,59.9948372583,Set,2017_05_17_1327,
6,2,,,,,0,9,9,13,,,,,20,0,20,0,,,,,left,0.516899970709,EZV,f,19,59.9948372583,Set,2017_05_17_1327,
6,2,,,,,0,9,9,13,,,,,21,0,21,0,,,,,left,0.933578808501,EZV,f,19,59.9948372583,Set,2017_05_17_1327,
6,2,,,,,0,9,9,13,,,,,22,0,22,0,,,,,down,0.700218843413,EZV,f,19,59.9948372583,Set,2017_05_17_1327,
6,2,,,,,0,9,9,13,,,,,23,0,23,0,,,,,left,0.750246909389,EZV,f,19,59.9948372583,Set,2017_05_17_1327,
6,2,,,,,0,9,9,13,,,,,24,0,24,0,,,,,down,0.800252475223,EZV,f,19,59.9948372583,Set,2017_05_17_1327,
6,2,,,,,0,9,9,13,,,,,25,0,25,0,,,,,down,0.93356104524,EZV,f,19,59.9948372583,Set,2017_05_17_1327,
3,3,,,,,0,10,10,18,,,,,0,0,0,0,,,,,right,1.10022665927,EZV,f,19,59.9948372583,Set,2017_05_17_1327,
3,3,,,,,0,10,10,18,,,,,1,0,1,0,,,,,right,0.466892431199,EZV,f,19,59.9948372583,Set,2017_05_17_1327,
3,3,,,,,0,10,10,18,,,,,2,0,2,0,,,,,right,0.500193816959,EZV,f,19,59.9948372583,Set,2017_05_17_1327,
3,3,,,,,0,10,10,18,,,,,3,0,3,0,,,,,right,0.66689574701,EZV,f,19,59.9948372583,Set,2017_05_17_1327,
3,3,,,,,0,10,10,18,,,,,4,0,4,0,,,,,right,0.966756246169,EZV,f,19,59.9948372583,Set,2017_05_17_1327,
3,3,,,,,0,10,10,18,,,,,5,0,5,0,,,,,right,0.75023388298,EZV,f,19,59.9948372583,Set,2017_05_17_1327,
3,3,,,,,0,10,10,18,,,,,6,0,6,0,,,,,down,0.600242448854,EZV,f,19,59.9948372583,Set,2017_05_17_1327,
3,3,,,,,0,10,10,18,,,,,7,0,7,0,,,,,down,0.400248212041,EZV,f,19,59.9948372583,Set,2017_05_17_1327,
7,3,,,,,0,11,11,22,,,,,0,0,0,0,,,,,right,1.48357726901,EZV,f,19,59.9948372583,Set,2017_05_17_1327,
7,3,,,,,0,11,11,22,,,,,1,0,1,0,,,,,down,0.600240080414,EZV,f,19,59.9948372583,Set,2017_05_17_1327,
7,3,,,,,0,11,11,22,,,,,2,0,2,0,,,,,down,2.33360951921,EZV,f,19,59.9948372583,Set,2017_05_17_1327,
6,1,,,,,0,12,12,5,,,,,0,0,0,0,,,,,down,1.78358461117,EZV,f,19,59.9948372583,Set,2017_05_17_1327,
6,1,,,,,0,12,12,5,,,,,1,0,1,0,,,,,left,0.600250738353,EZV,f,19,59.9948372583,Set,2017_05_17_1327,
6,1,,,,,0,12,12,5,,,,,2,0,2,0,,,,,down,0.683575453237,EZV,f,19,59.9948372583,Set,2017_05_17_1327,
6,1,,,,,0,12,12,5,,,,,3,0,3,0,,,,,left,1.48356147946,EZV,f,19,59.9948372583,Set,2017_05_17_1327,
6,1,,,,,0,12,12,5,,,,,4,0,4,0,,,,,left,0.583580900624,EZV,f,19,59.9948372583,Set,2017_05_17_1327,
6,1,,,,,0,12,12,5,,,,,5,0,5,0,,,,,left,0.516730232863,EZV,f,19,59.9948372583,Set,2017_05_17_1327,
6,1,,,,,0,12,12,5,,,,,6,0,6,0,,,,,left,0.433574861119,EZV,f,19,59.9948372583,Set,2017_05_17_1327,
6,1,,,,,0,12,12,5,,,,,7,0,7,0,,,,,down,0.516900365445,EZV,f,19,59.9948372583,Set,2017_05_17_1327,
6,1,,,,,0,12,12,5,,,,,8,0,8,0,,,,,left,0.633564361022,EZV,f,19,59.9948372583,Set,2017_05_17_1327,
6,1,,,,,0,12,12,5,,,,,9,0,9,0,,,,,down,0.566902773367,EZV,f,19,59.9948372583,Set,2017_05_17_1327,
6,1,,,,,0,12,12,5,,,,,10,0,10,0,,,,,down,0.516889707476,EZV,f,19,59.9948372583,Set,2017_05_17_1327,
6,1,,,,,0,12,12,5,,,,,11,0,11,0,,,,,left,0.450228909263,EZV,f,19,59.9948372583,Set,2017_05_17_1327,
6,1,,,,,0,12,12,5,,,,,12,0,12,0,,,,,left,1.01691418132,EZV,f,19,59.9948372583,Set,2017_05_17_1327,
6,1,,,,,0,12,12,5,,,,,13,0,13,0,,,,,left,0.416913707624,EZV,f,19,59.9948372583,Set,2017_05_17_1327,
6,1,,,,,0,12,12,5,,,,,14,0,14,0,,,,,right,1.10030915978,EZV,f,19,59.9948372583,Set,2017_05_17_1327,
6,1,,,,,0,12,12,5,,,,,15,0,15,0,,,,,down,0.583605769207,EZV,f,19,59.9948372583,Set,2017_05_17_1327,
6,1,,,,,0,12,12,5,,,,,16,0,16,0,,,,,left,0.433570913738,EZV,f,19,59.9948372583,Set,2017_05_17_1327,
6,1,,,,,0,12,12,5,,,,,17,0,17,0,,,,,right,0.6168589968,EZV,f,19,59.9948372583,Set,2017_05_17_1327,
6,1,,,,,0,12,12,5,,,,,18,0,18,0,,,,,down,0.516984444897,EZV,f,19,59.9948372583,Set,2017_05_17_1327,
6,1,,,,,0,12,12,5,,,,,19,0,19,0,,,,,down,0.466899141757,EZV,f,19,59.9948372583,Set,2017_05_17_1327,
6,1,,,,,0,12,12,5,,,,,20,0,20,0,,,,,right,1.0835643216,EZV,f,19,59.9948372583,Set,2017_05_17_1327,
6,1,,,,,0,12,12,5,,,,,21,0,21,0,,,,,right,1.46690229967,EZV,f,19,59.9948372583,Set,2017_05_17_1327,
6,1,,,,,0,12,12,5,,,,,22,0,22,0,,,,,left,0.400254527864,EZV,f,19,59.9948372583,Set,2017_05_17_1327,
6,1,,,,,0,12,12,5,,,,,23,0,23,0,,,,,right,0.600223106623,EZV,f,19,59.9948372583,Set,2017_05_17_1327,
6,1,,,,,0,12,12,5,,,,,24,0,24,0,,,,,left,0.433666835364,EZV,f,19,59.9948372583,Set,2017_05_17_1327,
6,1,,,,,0,12,12,5,,,,,25,0,25,0,,,,,right,0.41688489166,EZV,f,19,59.9948372583,Set,2017_05_17_1327,
6,1,,,,,0,12,12,5,,,,,26,0,26,0,,,,,right,1.10024442253,EZV,f,19,59.9948372583,Set,2017_05_17_1327,
6,1,,,,,0,12,12,5,,,,,27,0,27,0,,,,,left,0.766896615445,EZV,f,19,59.9948372583,Set,2017_05_17_1327,
6,1,,,,,0,12,12,5,,,,,28,0,28,0,,,,,left,1.41686199681,EZV,f,19,59.9948372583,Set,2017_05_17_1327,
6,1,,,,,0,12,12,5,,,,,29,0,29,0,,,,,right,0.416738838161,EZV,f,19,59.9948372583,Set,2017_05_17_1327,
6,1,,,,,0,12,12,5,,,,,30,0,30,0,,,,,left,0.40022886981,EZV,f,19,59.9948372583,Set,2017_05_17_1327,
6,1,,,,,0,12,12,5,,,,,31,0,31,0,,,,,left,2.3002141855,EZV,f,19,59.9948372583,Set,2017_05_17_1327,
6,1,,,,,0,12,12,5,,,,,32,0,32,0,,,,,right,0.483575690072,EZV,f,19,59.9948372583,Set,2017_05_17_1327,
6,1,,,,,0,12,12,5,,,,,33,0,33,0,,,,,down,0.933567361062,EZV,f,19,59.9948372583,Set,2017_05_17_1327,
6,1,,,,,0,12,12,5,,,,,34,0,34,0,,,,,right,0.500237238302,EZV,f,19,59.9948372583,Set,2017_05_17_1327,
6,1,,,,,0,12,12,5,,,,,35,0,35,0,,,,,left,0.683668611688,EZV,f,19,59.9948372583,Set,2017_05_17_1327,
6,1,,,,,0,12,12,5,,,,,36,0,36,0,,,,,left,0.883576400578,EZV,f,19,59.9948372583,Set,2017_05_17_1327,
6,1,,,,,0,12,12,5,,,,,37,0,37,0,,,,,down,1.700234633,EZV,f,19,59.9948372583,Set,2017_05_17_1327,
6,1,,,,,0,12,12,5,,,,,38,0,38,0,,,,,left,3.96687308897,EZV,f,19,59.9948372583,Set,2017_05_17_1327,
6,1,,,,,0,12,12,5,,,,,39,0,39,0,,,,,left,1.01689760227,EZV,f,19,59.9948372583,Set,2017_05_17_1327,
6,1,,,,,0,12,12,5,,,,,40,0,40,0,,,,,left,0.416891996982,EZV,f,19,59.9948372583,Set,2017_05_17_1327,
6,1,,,,,0,12,12,5,,,,,41,0,41,0,,,,,down,0.95023404088,EZV,f,19,59.9948372583,Set,2017_05_17_1327,
6,1,,,,,0,12,12,5,,,,,42,0,42,0,,,,,right,0.683574663766,EZV,f,19,59.9948372583,Set,2017_05_17_1327,
6,1,,,,,0,12,12,5,,,,,43,0,43,0,,,,,left,0.483575295308,EZV,f,19,59.9948372583,Set,2017_05_17_1327,
6,1,,,,,0,12,12,5,,,,,44,0,44,0,,,,,left,0.333566097892,EZV,f,19,59.9948372583,Set,2017_05_17_1327,
6,1,,,,,0,12,12,5,,,,,45,0,45,0,,,,,left,0.833603992854,EZV,f,19,59.9948372583,Set,2017_05_17_1327,
6,1,,,,,0,12,12,5,,,,,46,0,46,0,,,,,left,0.383577584813,EZV,f,19,59.9948372583,Set,2017_05_17_1327,
6,1,,,,,0,12,12,5,,,,,47,0,47,0,,,,,down,0.566899615427,EZV,f,19,59.9948372583,Set,2017_05_17_1327,
6,1,,,,,0,12,12,5,,,,,48,0,48,0,,,,,left,0.450239172525,EZV,f,19,59.9948372583,Set,2017_05_17_1327,
6,1,,,,,0,12,12,5,,,,,49,0,49,0,,,,,down,0.833557018894,EZV,f,19,59.9948372583,Set,2017_05_17_1327,
6,1,,,,,0,12,12,5,,,,,50,0,50,0,,,,,down,1.63354817676,EZV,f,19,59.9948372583,Set,2017_05_17_1327,
6,1,,,,,0,12,12,5,,,,,51,0,51,0,,,,,left,1.50021276445,EZV,f,19,59.9948372583,Set,2017_05_17_1327,
6,1,,,,,0,12,12,5,,,,,52,0,52,0,,,,,right,0.716897365433,EZV,f,19,59.9948372583,Set,2017_05_17_1327,
6,1,,,,,0,12,12,5,,,,,53,0,53,0,,,,,left,0.650226303987,EZV,f,19,59.9948372583,Set,2017_05_17_1327,
6,1,,,,,0,12,12,5,,,,,54,0,54,0,,,,,right,1.16689653648,EZV,f,19,59.9948372583,Set,2017_05_17_1327,
6,1,,,,,0,12,12,5,,,,,55,0,55,0,,,,,down,0.966890852229,EZV,f,19,59.9948372583,Set,2017_05_17_1327,
6,1,,,,,0,12,12,5,,,,,56,0,56,0,,,,,right,1.35022488295,EZV,f,19,59.9948372583,Set,2017_05_17_1327,
6,1,,,,,0,12,12,5,,,,,57,0,57,0,,,,,right,0.45023404088,EZV,f,19,59.9948372583,Set,2017_05_17_1327,
6,1,,,,,0,12,12,5,,,,,58,0,58,0,,,,,right,0.733593650715,EZV,f,19,59.9948372583,Set,2017_05_17_1327,
6,1,,,,,0,12,12,5,,,,,59,0,59,0,,,,,right,0.48356621631,EZV,f,19,59.9948372583,Set,2017_05_17_1327,
6,1,,,,,0,12,12,5,,,,,60,0,60,0,,,,,right,0.316917181335,EZV,f,19,59.9948372583,Set,2017_05_17_1327,
6,1,,,,,0,12,12,5,,,,,61,0,61,0,,,,,down,0.716896181199,EZV,f,19,59.9948372583,Set,2017_05_17_1327,
6,1,,,,,0,12,12,5,,,,,62,0,62,0,,,,,right,0.316915207659,EZV,f,19,59.9948372583,Set,2017_05_17_1327,
6,1,,,,,0,12,12,5,,,,,63,0,63,0,,,,,left,0.416910944448,EZV,f,19,59.9948372583,Set,2017_05_17_1327,
6,1,,,,,0,12,12,5,,,,,64,0,64,0,,,,,right,1.08349642644,EZV,f,19,59.9948372583,Set,2017_05_17_1327,
6,1,,,,,0,12,12,5,,,,,65,0,65,0,,,,,left,1.51688497062,EZV,f,19,59.9948372583,Set,2017_05_17_1327,
6,1,,,,,0,12,12,5,,,,,66,0,66,0,,,,,left,1.6668827206,EZV,f,19,59.9948372583,Set,2017_05_17_1327,
6,1,,,,,0,12,12,5,,,,,67,0,67,0,,,,,down,1.0502317514,EZV,f,19,59.9948372583,Set,2017_05_17_1327,
6,1,,,,,0,12,12,5,,,,,68,0,68,0,,,,,left,0.883564163669,EZV,f,19,59.9948372583,Set,2017_05_17_1327,
6,1,,,,,0,12,12,5,,,,,69,0,69,0,,,,,down,0.633621203509,EZV,f,19,59.9948372583,Set,2017_05_17_1327,
6,1,,,,,0,12,12,5,,,,,70,0,70,0,,,,,left,0.633557650493,EZV,f,19,59.9948372583,Set,2017_05_17_1327,
6,1,,,,,0,12,12,5,,,,,71,0,71,0,,,,,left,0.766910826031,EZV,f,19,59.9948372583,Set,2017_05_17_1327,
6,1,,,,,0,12,12,5,,,,,72,0,72,0,,,,,left,0.500243554096,EZV,f,19,59.9948372583,Set,2017_05_17_1327,
6,1,,,,,0,12,12,5,,,,,73,0,73,0,,,,,right,0.883615874511,EZV,f,19,59.9948372583,Set,2017_05_17_1327,
6,1,,,,,0,12,12,5,,,,,74,0,74,0,,,,,down,0.600244817266,EZV,f,19,59.9948372583,Set,2017_05_17_1327,
6,1,,,,,0,12,12,5,,,,,75,0,75,0,,,,,down,0.55025148837,EZV,f,19,59.9948372583,Set,2017_05_17_1327,
8,3,,,,,0,13,13,23,,,,,0,0,0,0,,,,,right,1.56688935222,EZV,f,19,59.9948372583,Set,2017_05_17_1327,
8,3,,,,,0,13,13,23,,,,,1,0,1,0,,,,,left,0.51690233915,EZV,f,19,59.9948372583,Set,2017_05_17_1327,
8,3,,,,,0,13,13,23,,,,,2,0,2,0,,,,,down,1.06689685228,EZV,f,19,59.9948372583,Set,2017_05_17_1327,
8,3,,,,,0,13,13,23,,,,,3,0,3,0,,,,,right,0.350228830328,EZV,f,19,59.9948372583,Set,2017_05_17_1327,
8,3,,,,,0,13,13,23,,,,,4,0,4,0,,,,,left,0.333587413799,EZV,f,19,59.9948372583,Set,2017_05_17_1327,
8,3,,,,,0,13,13,23,,,,,5,0,5,0,,,,,down,0.483572926896,EZV,f,19,59.9948372583,Set,2017_05_17_1327,
8,3,,,,,0,13,13,23,,,,,6,0,6,0,,,,,right,0.383576400578,EZV,f,19,59.9948372583,Set,2017_05_17_1327,
8,3,,,,,0,13,13,23,,,,,7,0,7,0,,,,,right,0.466902694403,EZV,f,19,59.9948372583,Set,2017_05_17_1327,
8,3,,,,,0,13,13,23,,,,,8,0,8,0,,,,,right,0.467334539135,EZV,f,19,59.9948372583,Set,2017_05_17_1327,
8,3,,,,,0,13,13,23,,,,,9,0,9,0,,,,,right,0.333585045388,EZV,f,19,59.9948372583,Set,2017_05_17_1327,
8,3,,,,,0,13,13,23,,,,,10,0,10,0,,,,,right,0.300298264978,EZV,f,19,59.9948372583,Set,2017_05_17_1327,
8,3,,,,,0,13,13,23,,,,,11,0,11,0,,,,,left,0.400207159139,EZV,f,19,59.9948372583,Set,2017_05_17_1327,
8,3,,,,,0,13,13,23,,,,,12,0,12,0,,,,,right,0.250235067215,EZV,f,19,59.9948372583,Set,2017_05_17_1327,
8,3,,,,,0,13,13,23,,,,,13,0,13,0,,,,,right,0.650236172456,EZV,f,19,59.9948372583,Set,2017_05_17_1327,
8,3,,,,,0,13,13,23,,,,,14,0,14,0,,,,,right,0.366899457527,EZV,f,19,59.9948372583,Set,2017_05_17_1327,
8,3,,,,,0,13,13,23,,,,,15,0,15,0,,,,,right,0.316919549776,EZV,f,19,59.9948372583,Set,2017_05_17_1327,
8,3,,,,,0,13,13,23,,,,,16,0,16,0,,,,,right,0.283545926737,EZV,f,19,59.9948372583,Set,2017_05_17_1327,
8,3,,,,,0,13,13,23,,,,,17,0,17,0,,,,,right,0.450230488234,EZV,f,19,59.9948372583,Set,2017_05_17_1327,
8,3,,,,,0,13,13,23,,,,,18,0,18,0,,,,,right,0.283558163646,EZV,f,19,59.9948372583,Set,2017_05_17_1327,
8,3,,,,,0,13,13,23,,,,,19,0,19,0,,,,,down,0.666888641688,EZV,f,19,59.9948372583,Set,2017_05_17_1327,
8,3,,,,,0,13,13,23,,,,,20,0,20,0,,,,,left,0.90022886981,EZV,f,19,59.9948372583,Set,2017_05_17_1327,
8,3,,,,,0,13,13,23,,,,,21,0,21,0,,,,,right,0.333617413999,EZV,f,19,59.9948372583,Set,2017_05_17_1327,
8,3,,,,,0,13,13,23,,,,,22,0,22,0,,,,,right,0.366893141734,EZV,f,19,59.9948372583,Set,2017_05_17_1327,
8,3,,,,,0,13,13,23,,,,,23,0,23,0,,,,,right,0.250071250426,EZV,f,19,59.9948372583,Set,2017_05_17_1327,
8,3,,,,,0,13,13,23,,,,,24,0,24,0,,,,,down,0.650250777835,EZV,f,19,59.9948372583,Set,2017_05_17_1327,
8,3,,,,,0,13,13,23,,,,,25,0,25,0,,,,,right,0.300229580345,EZV,f,19,59.9948372583,Set,2017_05_17_1327,
8,3,,,,,0,13,13,23,,,,,26,0,26,0,,,,,right,0.333954126545,EZV,f,19,59.9948372583,Set,2017_05_17_1327,
8,3,,,,,0,13,13,23,,,,,27,0,27,0,,,,,left,0.400221764488,EZV,f,19,59.9948372583,Set,2017_05_17_1327,
8,3,,,,,0,13,13,23,,,,,28,0,28,0,,,,,left,0.366861957329,EZV,f,19,59.9948372583,Set,2017_05_17_1327,
8,3,,,,,0,13,13,23,,,,,29,0,29,0,,,,,down,0.600249554147,EZV,f,19,59.9948372583,Set,2017_05_17_1327,
8,3,,,,,0,13,13,23,,,,,30,0,30,0,,,,,down,0.550215172378,EZV,f,19,59.9948372583,Set,2017_05_17_1327,
8,3,,,,,0,13,13,23,,,,,31,0,31,0,,,,,left,0.533568624232,EZV,f,19,59.9948372583,Set,2017_05_17_1327,
8,3,,,,,0,13,13,23,,,,,32,0,32,0,,,,,right,0.533569018968,EZV,f,19,59.9948372583,Set,2017_05_17_1327,
8,3,,,,,0,13,13,23,,,,,33,0,33,0,,,,,down,1.03355283465,EZV,f,19,59.9948372583,Set,2017_05_17_1327,
8,3,,,,,0,13,13,23,,,,,34,0,34,0,,,,,down,0.783563689969,EZV,f,19,59.9948372583,Set,2017_05_17_1327,
8,3,,,,,0,13,13,23,,,,,35,0,35,0,,,,,left,0.416879760072,EZV,f,19,59.9948372583,Set,2017_05_17_1327,
8,3,,,,,0,13,13,23,,,,,36,0,36,0,,,,,down,0.483575295337,EZV,f,19,59.9948372583,Set,2017_05_17_1327,
8,3,,,,,0,13,13,23,,,,,37,0,37,0,,,,,left,0.483552795165,EZV,f,19,59.9948372583,Set,2017_05_17_1327,
8,3,,,,,0,13,13,23,,,,,38,0,38,0,,,,,down,0.483559505752,EZV,f,19,59.9948372583,Set,2017_05_17_1327,
8,3,,,,,0,13,13,23,,,,,39,0,39,0,,,,,left,0.500233685627,EZV,f,19,59.9948372583,Set,2017_05_17_1327,
8,3,,,,,0,13,13,23,,,,,40,0,40,0,,,,,left,1.21690012861,EZV,f,19,59.9948372583,Set,2017_05_17_1327,
8,3,,,,,0,13,13,23,,,,,41,0,41,0,,,,,down,1.06688974696,EZV,f,19,59.9948372583,Set,2017_05_17_1327,
8,3,,,,,0,13,13,23,,,,,42,0,42,0,,,,,right,0.466924405075,EZV,f,19,59.9948372583,Set,2017_05_17_1327,
8,3,,,,,0,13,13,23,,,,,43,0,43,0,,,,,left,0.350254883146,EZV,f,19,59.9948372583,Set,2017_05_17_1327,
8,3,,,,,0,13,13,23,,,,,44,0,44,0,,,,,down,0.716884339025,EZV,f,19,59.9948372583,Set,2017_05_17_1327,
8,3,,,,,0,13,13,23,,,,,45,0,45,0,,,,,right,0.466898747021,EZV,f,19,59.9948372583,Set,2017_05_17_1327,
8,3,,,,,0,13,13,23,,,,,46,0,46,0,,,,,right,0.633576992695,EZV,f,19,59.9948372583,Set,2017_05_17_1327,
8,3,,,,,0,13,13,23,,,,,47,0,47,0,,,,,down,0.633596334927,EZV,f,19,59.9948372583,Set,2017_05_17_1327,
8,3,,,,,0,13,13,23,,,,,48,0,48,0,,,,,right,0.400261238421,EZV,f,19,59.9948372583,Set,2017_05_17_1327,
8,3,,,,,0,13,13,23,,,,,49,0,49,0,,,,,right,0.366915641847,EZV,f,19,59.9948372583,Set,2017_05_17_1327,
8,3,,,,,0,13,13,23,,,,,50,0,50,0,,,,,down,1.00022618557,EZV,f,19,59.9948372583,Set,2017_05_17_1327,
8,3,,,,,0,13,13,23,,,,,51,0,51,0,,,,,right,0.383602848102,EZV,f,19,59.9948372583,Set,2017_05_17_1327,
8,3,,,,,0,13,13,23,,,,,52,0,52,0,,,,,right,0.283561716293,EZV,f,19,59.9948372583,Set,2017_05_17_1327,
8,3,,,,,0,13,13,23,,,,,53,0,53,0,,,,,right,0.183571111091,EZV,f,19,59.9948372583,Set,2017_05_17_1327,
8,3,,,,,0,13,13,23,,,,,54,0,54,0,,,,,right,0.216892628552,EZV,f,19,59.9948372583,Set,2017_05_17_1327,
8,3,,,,,0,13,13,23,,,,,55,0,55,0,,,,,down,0.866891562764,EZV,f,19,59.9948372583,Set,2017_05_17_1327,
8,3,,,,,0,13,13,23,,,,,56,0,56,0,,,,,right,0.383564163669,EZV,f,19,59.9948372583,Set,2017_05_17_1327,
8,3,,,,,0,13,13,23,,,,,57,0,57,0,,,,,right,0.350220146094,EZV,f,19,59.9948372583,Set,2017_05_17_1327,
8,3,,,,,0,13,13,23,,,,,58,0,58,0,,,,,right,0.86691129973,EZV,f,19,59.9948372583,Set,2017_05_17_1327,
8,3,,,,,0,13,13,23,,,,,59,0,59,0,,,,,down,0.750244935683,EZV,f,19,59.9948372583,Set,2017_05_17_1327,
8,3,,,,,0,13,13,23,,,,,60,0,60,0,,,,,left,0.400230843516,EZV,f,19,59.9948372583,Set,2017_05_17_1327,
8,3,,,,,0,13,13,23,,,,,61,0,61,0,,,,,down,0.516963918461,EZV,f,19,59.9948372583,Set,2017_05_17_1327,
8,3,,,,,0,13,13,23,,,,,62,0,62,0,,,,,down,0.717009076616,EZV,f,19,59.9948372583,Set,2017_05_17_1327,
8,3,,,,,0,13,13,23,,,,,63,0,63,0,,,,,right,0.516911812883,EZV,f,19,59.9948372583,Set,2017_05_17_1327,
8,3,,,,,0,13,13,23,,,,,64,0,64,0,,,,,right,0.566928431392,EZV,f,19,59.9948372583,Set,2017_05_17_1327,
8,3,,,,,0,13,13,23,,,,,65,0,65,0,,,,,left,0.350227251387,EZV,f,19,59.9948372583,Set,2017_05_17_1327,
8,3,,,,,0,13,13,23,,,,,66,0,66,0,,,,,right,0.266912799736,EZV,f,19,59.9948372583,Set,2017_05_17_1327,
8,3,,,,,0,13,13,23,,,,,67,0,67,0,,,,,right,0.350222514506,EZV,f,19,59.9948372583,Set,2017_05_17_1327,
8,3,,,,,0,13,13,23,,,,,68,0,68,0,,,,,right,0.733568387397,EZV,f,19,59.9948372583,Set,2017_05_17_1327,
8,3,,,,,0,13,13,23,,,,,69,0,69,0,,,,,right,0.383627716685,EZV,f,19,59.9948372583,Set,2017_05_17_1327,
8,3,,,,,0,13,13,23,,,,,70,0,70,0,,,,,right,0.366893141734,EZV,f,19,59.9948372583,Set,2017_05_17_1327,
8,3,,,,,0,13,13,23,,,,,71,0,71,0,,,,,down,0.583565505804,EZV,f,19,59.9948372583,Set,2017_05_17_1327,
8,3,,,,,0,13,13,23,,,,,72,0,72,0,,,,,down,0.93356183474,EZV,f,19,59.9948372583,Set,2017_05_17_1327,
8,3,,,,,0,13,13,23,,,,,73,0,73,0,,,,,right,0.266902931267,EZV,f,19,59.9948372583,Set,2017_05_17_1327,
8,3,,,,,0,13,13,23,,,,,74,0,74,0,,,,,down,0.516883786418,EZV,f,19,59.9948372583,Set,2017_05_17_1327,
8,3,,,,,0,13,13,23,,,,,75,0,75,0,,,,,right,0.350216988154,EZV,f,19,59.9948372583,Set,2017_05_17_1327,
8,3,,,,,0,13,13,23,,,,,76,0,76,0,,,,,left,0.783622900897,EZV,f,19,59.9948372583,Set,2017_05_17_1327,
8,3,,,,,0,13,13,23,,,,,77,0,77,0,,,,,right,0.383580347989,EZV,f,19,59.9948372583,Set,2017_05_17_1327,
8,3,,,,,0,13,13,23,,,,,78,0,78,0,,,,,right,0.516928391939,EZV,f,19,59.9948372583,Set,2017_05_17_1327,
8,3,,,,,0,13,13,23,,,,,79,0,79,0,,,,,left,1.13356949264,EZV,f,19,59.9948372583,Set,2017_05_17_1327,
8,3,,,,,0,13,13,23,,,,,80,0,80,0,,,,,right,0.383700743463,EZV,f,19,59.9948372583,Set,2017_05_17_1327,
8,3,,,,,0,13,13,23,,,,,81,0,81,0,,,,,down,0.566902773367,EZV,f,19,59.9948372583,Set,2017_05_17_1327,
8,3,,,,,0,13,13,23,,,,,82,0,82,0,,,,,right,0.733568782132,EZV,f,19,59.9948372583,Set,2017_05_17_1327,
8,3,,,,,0,13,13,23,,,,,83,0,83,0,,,,,left,0.516902733885,EZV,f,19,59.9948372583,Set,2017_05_17_1327,
8,3,,,,,0,13,13,23,,,,,84,0,84,0,,,,,right,0.500250264653,EZV,f,19,59.9948372583,Set,2017_05_17_1327,
8,3,,,,,0,13,13,23,,,,,85,0,85,0,,,,,right,2.20013002711,EZV,f,19,59.9948372583,Set,2017_05_17_1327,
8,3,,,,,0,13,13,23,,,,,86,0,86,0,,,,,right,0.66691114183,EZV,f,19,59.9948372583,Set,2017_05_17_1327,
8,3,,,,,0,13,13,23,,,,,87,0,87,0,,,,,right,1.40023242246,EZV,f,19,59.9948372583,Set,2017_05_17_1327,
8,3,,,,,0,13,13,23,,,,,88,0,88,0,,,,,right,1.11693241828,EZV,f,19,59.9948372583,Set,2017_05_17_1327,
8,3,,,,,0,13,13,23,,,,,89,0,89,0,,,,,left,0.533572571614,EZV,f,19,59.9948372583,Set,2017_05_17_1327,
8,3,,,,,0,13,13,23,,,,,90,0,90,0,,,,,left,0.566912641836,EZV,f,19,59.9948372583,Set,2017_05_17_1327,
8,3,,,,,0,13,13,23,,,,,91,0,91,0,,,,,down,0.716893023287,EZV,f,19,59.9948372583,Set,2017_05_17_1327,
8,3,,,,,0,13,13,23,,,,,92,0,92,0,,,,,left,0.433647887869,EZV,f,19,59.9948372583,Set,2017_05_17_1327,
8,3,,,,,0,13,13,23,,,,,93,0,93,0,,,,,left,0.433577624295,EZV,f,19,59.9948372583,Set,2017_05_17_1327,
8,3,,,,,0,13,13,23,,,,,94,0,94,0,,,,,left,0.333568861097,EZV,f,19,59.9948372583,Set,2017_05_17_1327,
8,3,,,,,0,13,13,23,,,,,95,0,95,0,,,,,down,0.733665887994,EZV,f,19,59.9948372583,Set,2017_05_17_1327,
8,3,,,,,0,13,13,23,,,,,96,0,96,0,,,,,left,0.466918878723,EZV,f,19,59.9948372583,Set,2017_05_17_1327,
8,3,,,,,0,13,13,23,,,,,97,0,97,0,,,,,left,0.983569374221,EZV,f,19,59.9948372583,Set,2017_05_17_1327,
8,3,,,,,0,13,13,23,,,,,98,0,98,0,,,,,down,0.850247777824,EZV,f,19,59.9948372583,Set,2017_05_17_1327,
8,3,,,,,0,13,13,23,,,,,99,0,99,0,,,,,left,0.433589861204,EZV,f,19,59.9948372583,Set,2017_05_17_1327,
4,1,,,,,0,14,14,3,,,,,0,0,0,0,,,,,right,1.18357387427,EZV,f,19,59.9948372583,Set,2017_05_17_1327,
4,1,,,,,0,14,14,3,,,,,1,0,1,0,,,,,right,0.583604190237,EZV,f,19,59.9948372583,Set,2017_05_17_1327,
4,1,,,,,0,14,14,3,,,,,2,0,2,0,,,,,down,0.516883786389,EZV,f,19,59.9948372583,Set,2017_05_17_1327,
4,1,,,,,0,14,14,3,,,,,3,0,3,0,,,,,right,0.533548097796,EZV,f,19,59.9948372583,Set,2017_05_17_1327,
4,1,,,,,0,14,14,3,,,,,4,0,4,0,,,,,left,0.716882365348,EZV,f,19,59.9948372583,Set,2017_05_17_1327,
4,1,,,,,0,14,14,3,,,,,5,0,5,0,,,,,down,0.516901154915,EZV,f,19,59.9948372583,Set,2017_05_17_1327,
4,1,,,,,0,14,14,3,,,,,6,0,6,0,,,,,left,0.416911733948,EZV,f,19,59.9948372583,Set,2017_05_17_1327,
4,1,,,,,0,14,14,3,,,,,7,0,7,0,,,,,right,0.366899062821,EZV,f,19,59.9948372583,Set,2017_05_17_1327,
4,1,,,,,0,14,14,3,,,,,8,0,8,0,,,,,down,0.766912405001,EZV,f,19,59.9948372583,Set,2017_05_17_1327,
4,1,,,,,0,14,14,3,,,,,9,0,9,0,,,,,right,0.53356072944,EZV,f,19,59.9948372583,Set,2017_05_17_1327,
4,1,,,,,0,14,14,3,,,,,10,0,10,0,,,,,down,0.683624795638,EZV,f,19,59.9948372583,Set,2017_05_17_1327,
4,1,,,,,0,14,14,3,,,,,11,0,11,0,,,,,down,0.516896418034,EZV,f,19,59.9948372583,Set,2017_05_17_1327,
4,1,,,,,0,14,14,3,,,,,12,0,12,0,,,,,left,0.35026751479,EZV,f,19,59.9948372583,Set,2017_05_17_1327,
4,1,,,,,0,14,14,3,,,,,13,0,13,0,,,,,right,0.450237988291,EZV,f,19,59.9948372583,Set,2017_05_17_1327,
4,1,,,,,0,14,14,3,,,,,14,0,14,0,,,,,left,0.966903089167,EZV,f,19,59.9948372583,Set,2017_05_17_1327,
4,1,,,,,0,14,14,3,,,,,15,0,15,0,,,,,down,1.18356084786,EZV,f,19,59.9948372583,Set,2017_05_17_1327,
4,1,,,,,0,14,14,3,,,,,16,0,16,0,,,,,down,1.71688591799,EZV,f,19,59.9948372583,Set,2017_05_17_1327,
7,1,,,,,0,15,15,6,,,,,0,0,0,0,,,,,down,0.966880588996,EZV,f,19,59.9948372583,Set,2017_05_17_1327,
7,1,,,,,0,15,15,6,,,,,1,0,1,0,,,,,left,0.41691568133,EZV,f,19,59.9948372583,Set,2017_05_17_1327,
7,1,,,,,0,15,15,6,,,,,2,0,2,0,,,,,right,0.466897957551,EZV,f,19,59.9948372583,Set,2017_05_17_1327,
7,1,,,,,0,15,15,6,,,,,3,0,3,0,,,,,down,0.500237633038,EZV,f,19,59.9948372583,Set,2017_05_17_1327,
7,1,,,,,0,15,15,6,,,,,4,0,4,0,,,,,down,0.450266014755,EZV,f,19,59.9948372583,Set,2017_05_17_1327,
8,2,,,,,0,16,16,15,,,,,0,0,0,0,,,,,down,1.51688812854,EZV,f,19,59.9948372583,Set,2017_05_17_1327,
8,2,,,,,0,16,16,15,,,,,1,0,1,0,,,,,left,0.850256856822,EZV,f,19,59.9948372583,Set,2017_05_17_1327,
8,2,,,,,0,16,16,15,,,,,2,0,2,0,,,,,down,0.500236843538,EZV,f,19,59.9948372583,Set,2017_05_17_1327,
8,2,,,,,0,16,16,15,,,,,3,0,3,0,,,,,left,0.616904786526,EZV,f,19,59.9948372583,Set,2017_05_17_1327,
8,2,,,,,0,16,16,15,,,,,4,0,4,0,,,,,down,0.483563453134,EZV,f,19,59.9948372583,Set,2017_05_17_1327,
8,2,,,,,0,16,16,15,,,,,5,0,5,0,,,,,left,0.73356167681,EZV,f,19,59.9948372583,Set,2017_05_17_1327,
8,2,,,,,0,16,16,15,,,,,6,0,6,0,,,,,left,0.500243554125,EZV,f,19,59.9948372583,Set,2017_05_17_1327,
8,2,,,,,0,16,16,15,,,,,7,0,7,0,,,,,down,0.550248330459,EZV,f,19,59.9948372583,Set,2017_05_17_1327,
8,2,,,,,0,16,16,15,,,,,8,0,8,0,,,,,down,1.03355875576,EZV,f,19,59.9948372583,Set,2017_05_17_1327,
8,2,,,,,0,16,16,15,,,,,9,0,9,0,,,,,left,0.433538939833,EZV,f,19,59.9948372583,Set,2017_05_17_1327,
8,2,,,,,0,16,16,15,,,,,10,0,10,0,,,,,down,0.616889391677,EZV,f,19,59.9948372583,Set,2017_05_17_1327,
8,2,,,,,0,16,16,15,,,,,11,0,11,0,,,,,down,1.28356132156,EZV,f,19,59.9948372583,Set,2017_05_17_1327,
3,2,,,,,0,17,17,10,,,,,0,0,0,0,,,,,right,0.850243040943,EZV,f,19,59.9948372583,Set,2017_05_17_1327,
3,2,,,,,0,17,17,10,,,,,1,0,1,0,,,,,down,0.800239054079,EZV,f,19,59.9948372583,Set,2017_05_17_1327,
3,2,,,,,0,17,17,10,,,,,2,0,2,0,,,,,down,0.650223540812,EZV,f,19,59.9948372583,Set,2017_05_17_1327,
4,2,,,,,0,18,18,11,,,,,0,0,0,0,,,,,down,18.3333647809,EZV,f,19,59.9948372583,Set,2017_05_17_1327,
4,2,,,,,0,18,18,11,,,,,1,0,1,0,,,,,left,0.883567716315,EZV,f,19,59.9948372583,Set,2017_05_17_1327,
4,2,,,,,0,18,18,11,,,,,2,0,2,0,,,,,down,1.63340607061,EZV,f,19,59.9948372583,Set,2017_05_17_1327,
4,2,,,,,0,18,18,11,,,,,3,0,3,0,,,,,left,0.633565940021,EZV,f,19,59.9948372583,Set,2017_05_17_1327,
4,2,,,,,0,18,18,11,,,,,4,0,4,0,,,,,down,1.46687664161,EZV,f,19,59.9948372583,Set,2017_05_17_1327,
4,2,,,,,0,18,18,11,,,,,5,0,5,0,,,,,left,0.833566097892,EZV,f,19,59.9948372583,Set,2017_05_17_1327,
4,2,,,,,0,18,18,11,,,,,6,0,6,0,,,,,left,3.01689365489,EZV,f,19,59.9948372583,Set,2017_05_17_1327,
4,2,,,,,0,18,18,11,,,,,7,0,7,0,,,,,down,0.916883707454,EZV,f,19,59.9948372583,Set,2017_05_17_1327,
4,2,,,,,0,18,18,11,,,,,8,0,8,0,,,,,left,0.483577663748,EZV,f,19,59.9948372583,Set,2017_05_17_1327,
4,2,,,,,0,18,18,11,,,,,9,0,9,0,,,,,right,0.46684861512,EZV,f,19,59.9948372583,Set,2017_05_17_1327,
4,2,,,,,0,18,18,11,,,,,10,0,10,0,,,,,right,0.450241935672,EZV,f,19,59.9948372583,Set,2017_05_17_1327,
4,2,,,,,0,18,18,11,,,,,11,0,11,0,,,,,down,0.800226817169,EZV,f,19,59.9948372583,Set,2017_05_17_1327,
4,2,,,,,0,18,18,11,,,,,12,0,12,0,,,,,right,0.350833965582,EZV,f,19,59.9948372583,Set,2017_05_17_1327,
4,2,,,,,0,18,18,11,,,,,13,0,13,0,,,,,right,0.366906168114,EZV,f,19,59.9948372583,Set,2017_05_17_1327,
4,2,,,,,0,18,18,11,,,,,14,0,14,0,,,,,down,0.633419097023,EZV,f,19,59.9948372583,Set,2017_05_17_1327,
4,2,,,,,0,18,18,11,,,,,15,0,15,0,,,,,left,0.733558518899,EZV,f,19,59.9948372583,Set,2017_05_17_1327,
4,2,,,,,0,18,18,11,,,,,16,0,16,0,,,,,down,0.400250185718,EZV,f,19,59.9948372583,Set,2017_05_17_1327,
4,2,,,,,0,18,18,11,,,,,17,0,17,0,,,,,right,0.583589190122,EZV,f,19,59.9948372583,Set,2017_05_17_1327,
4,2,,,,,0,18,18,11,,,,,18,0,18,0,,,,,right,0.316887575871,EZV,f,19,59.9948372583,Set,2017_05_17_1327,
4,2,,,,,0,18,18,11,,,,,19,0,19,0,,,,,right,0.283566058439,EZV,f,19,59.9948372583,Set,2017_05_17_1327,
4,2,,,,,0,18,18,11,,,,,20,0,20,0,,,,,left,0.566858957289,EZV,f,19,59.9948372583,Set,2017_05_17_1327,
4,2,,,,,0,18,18,11,,,,,21,0,21,0,,,,,right,0.483553584665,EZV,f,19,59.9948372583,Set,2017_05_17_1327,
4,2,,,,,0,18,18,11,,,,,22,0,22,0,,,,,down,0.250245330448,EZV,f,19,59.9948372583,Set,2017_05_17_1327,
4,2,,,,,0,18,18,11,,,,,23,0,23,0,,,,,down,1.13366462479,EZV,f,19,59.9948372583,Set,2017_05_17_1327,
4,2,,,,,0,18,18,11,,,,,24,0,24,0,,,,,right,0.683401373215,EZV,f,19,59.9948372583,Set,2017_05_17_1327,
4,2,,,,,0,18,18,11,,,,,25,0,25,0,,,,,right,0.300229185581,EZV,f,19,59.9948372583,Set,2017_05_17_1327,
4,2,,,,,0,18,18,11,,,,,26,0,26,0,,,,,right,0.250229935598,EZV,f,19,59.9948372583,Set,2017_05_17_1327,
4,2,,,,,0,18,18,11,,,,,27,0,27,0,,,,,right,0.200239369849,EZV,f,19,59.9948372583,Set,2017_05_17_1327,
4,2,,,,,0,18,18,11,,,,,28,0,28,0,,,,,left,0.400245448836,EZV,f,19,59.9948372583,Set,2017_05_17_1327,
4,2,,,,,0,18,18,11,,,,,29,0,29,0,,,,,right,0.300234317227,EZV,f,19,59.9948372583,Set,2017_05_17_1327,
4,2,,,,,0,18,18,11,,,,,30,0,30,0,,,,,right,0.483594637539,EZV,f,19,59.9948372583,Set,2017_05_17_1327,
4,2,,,,,0,18,18,11,,,,,31,0,31,0,,,,,down,1.45022496188,EZV,f,19,59.9948372583,Set,2017_05_17_1327,
4,2,,,,,0,18,18,11,,,,,32,0,32,0,,,,,right,0.316909681278,EZV,f,19,59.9948372583,Set,2017_05_17_1327,
4,2,,,,,0,18,18,11,,,,,33,0,33,0,,,,,right,0.416908576037,EZV,f,19,59.9948372583,Set,2017_05_17_1327,
4,2,,,,,0,18,18,11,,,,,34,0,34,0,,,,,down,0.933610782376,EZV,f,19,59.9948372583,Set,2017_05_17_1327,
4,2,,,,,0,18,18,11,,,,,35,0,35,0,,,,,left,1.10022981718,EZV,f,19,59.9948372583,Set,2017_05_17_1327,
4,2,,,,,0,18,18,11,,,,,36,0,36,0,,,,,right,0.283562900528,EZV,f,19,59.9948372583,Set,2017_05_17_1327,
4,2,,,,,0,18,18,11,,,,,37,0,37,0,,,,,right,1.05022267241,EZV,f,19,59.9948372583,Set,2017_05_17_1327,
4,2,,,,,0,18,18,11,,,,,38,0,38,0,,,,,right,0.316880865343,EZV,f,19,59.9948372583,Set,2017_05_17_1327,
4,2,,,,,0,18,18,11,,,,,39,0,39,0,,,,,down,0.650242093572,EZV,f,19,59.9948372583,Set,2017_05_17_1327,
4,2,,,,,0,18,18,11,,,,,40,0,40,0,,,,,down,0.633566729492,EZV,f,19,59.9948372583,Set,2017_05_17_1327,
2,2,,,,,0,19,19,9,,,,,0,0,0,0,,,,,right,1.16692022083,EZV,f,19,59.9948372583,Set,2017_05_17_1327,
2,2,,,,,0,19,19,9,,,,,1,0,1,0,,,,,down,1.23355891363,EZV,f,19,59.9948372583,Set,2017_05_17_1327,
2,2,,,,,0,19,19,9,,,,,2,0,2,0,,,,,down,0.466888483788,EZV,f,19,59.9948372583,Set,2017_05_17_1327,
2,2,,,,,0,19,19,9,,,,,3,0,3,0,,,,,right,1.21687131264,EZV,f,19,59.9948372583,Set,2017_05_17_1327,
2,2,,,,,0,19,19,9,,,,,4,0,4,0,,,,,right,1.16688193113,EZV,f,19,59.9948372583,Set,2017_05_17_1327,
2,2,,,,,0,19,19,9,,,,,5,0,5,0,,,,,left,0.566885404842,EZV,f,19,59.9948372583,Set,2017_05_17_1327,
2,2,,,,,0,19,19,9,,,,,6,0,6,0,,,,,down,0.650231040869,EZV,f,19,59.9948372583,Set,2017_05_17_1327,
2,2,,,,,0,19,19,9,,,,,7,0,7,0,,,,,left,0.900250185747,EZV,f,19,59.9948372583,Set,2017_05_17_1327,
2,2,,,,,0,19,19,9,,,,,8,0,8,0,,,,,right,0.366891957528,EZV,f,19,59.9948372583,Set,2017_05_17_1327,
2,2,,,,,0,19,19,9,,,,,9,0,9,0,,,,,right,0.383555479406,EZV,f,19,59.9948372583,Set,2017_05_17_1327,
2,2,,,,,0,19,19,9,,,,,10,0,10,0,,,,,right,0.450242330407,EZV,f,19,59.9948372583,Set,2017_05_17_1327,
2,2,,,,,0,19,19,9,,,,,11,0,11,0,,,,,right,0.283406583796,EZV,f,19,59.9948372583,Set,2017_05_17_1327,
2,2,,,,,0,19,19,9,,,,,12,0,12,0,,,,,right,0.466909799696,EZV,f,19,59.9948372583,Set,2017_05_17_1327,
2,2,,,,,0,19,19,9,,,,,13,0,13,0,,,,,right,1.13359949287,EZV,f,19,59.9948372583,Set,2017_05_17_1327,
2,2,,,,,0,19,19,9,,,,,14,0,14,0,,,,,left,0.416890418011,EZV,f,19,59.9948372583,Set,2017_05_17_1327,
2,2,,,,,0,19,19,9,,,,,15,0,15,0,,,,,right,0.333566492627,EZV,f,19,59.9948372583,Set,2017_05_17_1327,
2,2,,,,,0,19,19,9,,,,,16,0,16,0,,,,,down,0.633961073967,EZV,f,19,59.9948372583,Set,2017_05_17_1327,
2,2,,,,,0,19,19,9,,,,,17,0,17,0,,,,,right,0.30027379113,EZV,f,19,59.9948372583,Set,2017_05_17_1327,
2,2,,,,,0,19,19,9,,,,,18,0,18,0,,,,,right,0.616881102178,EZV,f,19,59.9948372583,Set,2017_05_17_1327,
2,2,,,,,0,19,19,9,,,,,19,0,19,0,,,,,down,0.550248725165,EZV,f,19,59.9948372583,Set,2017_05_17_1327,
2,2,,,,,0,19,19,9,,,,,20,0,20,0,,,,,right,0.266912010266,EZV,f,19,59.9948372583,Set,2017_05_17_1327,
2,2,,,,,0,19,19,9,,,,,21,0,21,0,,,,,right,0.483560295223,EZV,f,19,59.9948372583,Set,2017_05_17_1327,
2,2,,,,,0,19,19,9,,,,,22,0,22,0,,,,,down,0.766874115303,EZV,f,19,59.9948372583,Set,2017_05_17_1327,
2,2,,,,,0,19,19,9,,,,,23,0,23,0,,,,,down,1.13354146617,EZV,f,19,59.9948372583,Set,2017_05_17_1327,
3,1,,,,,0,20,20,2,,,,,0,0,0,0,,,,,left,0.950223382941,EZV,f,19,59.9948372583,Set,2017_05_17_1327,
3,1,,,,,0,20,20,2,,,,,1,0,1,0,,,,,down,1.25023467248,EZV,f,19,59.9948372583,Set,2017_05_17_1327,
3,1,,,,,0,20,20,2,,,,,2,0,2,0,,,,,left,0.466905852314,EZV,f,19,59.9948372583,Set,2017_05_17_1327,
3,1,,,,,0,20,20,2,,,,,3,0,3,0,,,,,right,0.383595742809,EZV,f,19,59.9948372583,Set,2017_05_17_1327,
3,1,,,,,0,20,20,2,,,,,4,0,4,0,,,,,left,0.350242646207,EZV,f,19,59.9948372583,Set,2017_05_17_1327,
3,1,,,,,0,20,20,2,,,,,5,0,5,0,,,,,left,0.383559032052,EZV,f,19,59.9948372583,Set,2017_05_17_1327,
3,1,,,,,0,20,20,2,,,,,6,0,6,0,,,,,right,0.516913391853,EZV,f,19,59.9948372583,Set,2017_05_17_1327,
3,1,,,,,0,20,20,2,,,,,7,0,7,0,,,,,right,0.750226777687,EZV,f,19,59.9948372583,Set,2017_05_17_1327,
3,1,,,,,0,20,20,2,,,,,8,0,8,0,,,,,left,1.00022026448,EZV,f,19,59.9948372583,Set,2017_05_17_1327,
3,1,,,,,0,20,20,2,,,,,9,0,9,0,,,,,down,0.700232264557,EZV,f,19,59.9948372583,Set,2017_05_17_1327,
3,1,,,,,0,20,20,2,,,,,10,0,10,0,,,,,left,0.600217185507,EZV,f,19,59.9948372583,Set,2017_05_17_1327,
3,1,,,,,0,20,20,2,,,,,11,0,11,0,,,,,down,0.600247975177,EZV,f,19,59.9948372583,Set,2017_05_17_1327,
3,1,,,,,0,20,20,2,,,,,12,0,12,0,,,,,right,0.316982313321,EZV,f,19,59.9948372583,Set,2017_05_17_1327,
3,1,,,,,0,20,20,2,,,,,13,0,13,0,,,,,right,0.283422373323,EZV,f,19,59.9948372583,Set,2017_05_17_1327,
3,1,,,,,0,20,20,2,,,,,14,0,14,0,,,,,right,0.30024458043,EZV,f,19,59.9948372583,Set,2017_05_17_1327,
3,1,,,,,0,20,20,2,,,,,15,0,15,0,,,,,right,0.333580703242,EZV,f,19,59.9948372583,Set,2017_05_17_1327,
3,1,,,,,0,20,20,2,,,,,16,0,16,0,,,,,right,0.3502497515,EZV,f,19,59.9948372583,Set,2017_05_17_1327,
3,1,,,,,0,20,20,2,,,,,17,0,17,0,,,,,left,0.466916510282,EZV,f,19,59.9948372583,Set,2017_05_17_1327,
3,1,,,,,0,20,20,2,,,,,18,0,18,0,,,,,right,0.316939681477,EZV,f,19,59.9948372583,Set,2017_05_17_1327,
3,1,,,,,0,20,20,2,,,,,19,0,19,0,,,,,right,0.366879325855,EZV,f,19,59.9948372583,Set,2017_05_17_1327,
3,1,,,,,0,20,20,2,,,,,20,0,20,0,,,,,down,0.533519281831,EZV,f,19,59.9948372583,Set,2017_05_17_1327,
3,1,,,,,0,20,20,2,,,,,21,0,21,0,,,,,right,0.316881654813,EZV,f,19,59.9948372583,Set,2017_05_17_1327,
3,1,,,,,0,20,20,2,,,,,22,0,22,0,,,,,right,0.383549163584,EZV,f,19,59.9948372583,Set,2017_05_17_1327,
3,1,,,,,0,20,20,2,,,,,23,0,23,0,,,,,right,0.266905694443,EZV,f,19,59.9948372583,Set,2017_05_17_1327,
3,1,,,,,0,20,20,2,,,,,24,0,24,0,,,,,right,1.08355366363,EZV,f,19,59.9948372583,Set,2017_05_17_1327,
3,1,,,,,0,20,20,2,,,,,25,0,25,0,,,,,down,0.650233804045,EZV,f,19,59.9948372583,Set,2017_05_17_1327,
3,1,,,,,0,20,20,2,,,,,26,0,26,0,,,,,left,1.11689926017,EZV,f,19,59.9948372583,Set,2017_05_17_1327,
3,1,,,,,0,20,20,2,,,,,27,0,27,0,,,,,down,0.616890575911,EZV,f,19,59.9948372583,Set,2017_05_17_1327,
3,1,,,,,0,20,20,2,,,,,28,0,28,0,,,,,right,1.20021173812,EZV,f,19,59.9948372583,Set,2017_05_17_1327,
3,1,,,,,0,20,20,2,,,,,29,0,29,0,,,,,left,0.366927089286,EZV,f,19,59.9948372583,Set,2017_05_17_1327,
3,1,,,,,0,20,20,2,,,,,30,0,30,0,,,,,right,0.566889352223,EZV,f,19,59.9948372583,Set,2017_05_17_1327,
3,1,,,,,0,20,20,2,,,,,31,0,31,0,,,,,down,0.61690123388,EZV,f,19,59.9948372583,Set,2017_05_17_1327,
3,1,,,,,0,20,20,2,,,,,32,0,32,0,,,,,left,0.533571387408,EZV,f,19,59.9948372583,Set,2017_05_17_1327,
3,1,,,,,0,20,20,2,,,,,33,0,33,0,,,,,right,0.383564558433,EZV,f,19,59.9948372583,Set,2017_05_17_1327,
3,1,,,,,0,20,20,2,,,,,34,0,34,0,,,,,left,0.35026672532,EZV,f,19,59.9948372583,Set,2017_05_17_1327,
3,1,,,,,0,20,20,2,,,,,35,0,35,0,,,,,left,0.483503058058,EZV,f,19,59.9948372583,Set,2017_05_17_1327,
3,1,,,,,0,20,20,2,,,,,36,0,36,0,,,,,right,0.383579953254,EZV,f,19,59.9948372583,Set,2017_05_17_1327,
3,1,,,,,0,20,20,2,,,,,37,0,37,0,,,,,left,0.350228830328,EZV,f,19,59.9948372583,Set,2017_05_17_1327,
3,1,,,,,0,20,20,2,,,,,38,0,38,0,,,,,left,1.05021477761,EZV,f,19,59.9948372583,Set,2017_05_17_1327,
3,1,,,,,0,20,20,2,,,,,39,0,39,0,,,,,right,0.416919233976,EZV,f,19,59.9948372583,Set,2017_05_17_1327,
3,1,,,,,0,20,20,2,,,,,40,0,40,0,,,,,left,0.2002247645,EZV,f,19,59.9948372583,Set,2017_05_17_1327,
3,1,,,,,0,20,20,2,,,,,41,0,41,0,,,,,right,0.933386175777,EZV,f,19,59.9948372583,Set,2017_05_17_1327,
3,1,,,,,0,20,20,2,,,,,42,0,42,0,,,,,left,0.816908102337,EZV,f,19,59.9948372583,Set,2017_05_17_1327,
3,1,,,,,0,20,20,2,,,,,43,0,43,0,,,,,right,0.916906602331,EZV,f,19,59.9948372583,Set,2017_05_17_1327,
3,1,,,,,0,20,20,2,,,,,44,0,44,0,,,,,right,0.516939049907,EZV,f,19,59.9948372583,Set,2017_05_17_1327,
3,1,,,,,0,20,20,2,,,,,45,0,45,0,,,,,right,0.750214146014,EZV,f,19,59.9948372583,Set,2017_05_17_1327,
3,1,,,,,0,20,20,2,,,,,46,0,46,0,,,,,left,1.48356700581,EZV,f,19,59.9948372583,Set,2017_05_17_1327,
3,1,,,,,0,20,20,2,,,,,47,0,47,0,,,,,down,0.650243672542,EZV,f,19,59.9948372583,Set,2017_05_17_1327,
3,1,,,,,0,20,20,2,,,,,48,0,48,0,,,,,down,0.35024896203,EZV,f,19,59.9948372583,Set,2017_05_17_1327,
1,2,,,,,0,21,21,8,,,,,0,0,0,0,,,,,down,2.21689539176,EZV,f,19,59.9948372583,Set,2017_05_17_1327,
1,2,,,,,0,21,21,8,,,,,1,0,1,0,,,,,down,0.75023704092,EZV,f,19,59.9948372583,Set,2017_05_17_1327,
1,2,,,,,0,21,21,8,,,,,2,0,2,0,,,,,right,0.666952194733,EZV,f,19,59.9948372583,Set,2017_05_17_1327,
1,2,,,,,0,21,21,8,,,,,3,0,3,0,,,,,right,0.450243909378,EZV,f,19,59.9948372583,Set,2017_05_17_1327,
1,2,,,,,0,21,21,8,,,,,4,0,4,0,,,,,right,0.366886431148,EZV,f,19,59.9948372583,Set,2017_05_17_1327,
1,2,,,,,0,21,21,8,,,,,5,0,5,0,,,,,right,0.400219790812,EZV,f,19,59.9948372583,Set,2017_05_17_1327,
1,2,,,,,0,21,21,8,,,,,6,0,6,0,,,,,right,0.483597795479,EZV,f,19,59.9948372583,Set,2017_05_17_1327,
1,2,,,,,0,21,21,8,,,,,7,0,7,0,,,,,left,0.533549676766,EZV,f,19,59.9948372583,Set,2017_05_17_1327,
1,2,,,,,0,21,21,8,,,,,8,0,8,0,,,,,down,0.533578492701,EZV,f,19,59.9948372583,Set,2017_05_17_1327,
1,2,,,,,0,21,21,8,,,,,9,0,9,0,,,,,left,0.450239172496,EZV,f,19,59.9948372583,Set,2017_05_17_1327,
1,2,,,,,0,21,21,8,,,,,10,0,10,0,,,,,left,1.11688623377,EZV,f,19,59.9948372583,Set,2017_05_17_1327,
1,2,,,,,0,21,21,8,,,,,11,0,11,0,,,,,down,2.70021686974,EZV,f,19,59.9948372583,Set,2017_05_17_1327,
1,2,,,,,0,21,21,8,,,,,12,0,12,0,,,,,down,0.750451779051,EZV,f,19,59.9948372583,Set,2017_05_17_1327,
1,2,,,,,0,21,21,8,,,,,13,0,13,0,,,,,right,0.550166224682,EZV,f,19,59.9948372583,Set,2017_05_17_1327,
1,2,,,,,0,21,21,8,,,,,14,0,14,0,,,,,down,0.63358962434,EZV,f,19,59.9948372583,Set,2017_05_17_1327,
1,2,,,,,0,21,21,8,,,,,15,0,15,0,,,,,down,0.400176369469,EZV,f,19,59.9948372583,Set,2017_05_17_1327,
1,2,,,,,0,21,21,8,,,,,16,0,16,0,,,,,right,0.416735680221,EZV,f,19,59.9948372583,Set,2017_05_17_1327,
1,2,,,,,0,21,21,8,,,,,17,0,17,0,,,,,left,0.333750441117,EZV,f,19,59.9948372583,Set,2017_05_17_1327,
1,2,,,,,0,21,21,8,,,,,18,0,18,0,,,,,right,0.350231988239,EZV,f,19,59.9948372583,Set,2017_05_17_1327,
1,2,,,,,0,21,21,8,,,,,19,0,19,0,,,,,down,0.433566966327,EZV,f,19,59.9948372583,Set,2017_05_17_1327,
1,2,,,,,0,21,21,8,,,,,20,0,20,0,,,,,right,0.333625308791,EZV,f,19,59.9948372583,Set,2017_05_17_1327,
1,2,,,,,0,21,21,8,,,,,21,0,21,0,,,,,down,1.26673161442,EZV,f,19,59.9948372583,Set,2017_05_17_1327,
1,2,,,,,0,21,21,8,,,,,22,0,22,0,,,,,right,0.383583900635,EZV,f,19,59.9948372583,Set,2017_05_17_1327,
1,2,,,,,0,21,21,8,,,,,23,0,23,0,,,,,right,0.333564913686,EZV,f,19,59.9948372583,Set,2017_05_17_1327,
1,2,,,,,0,21,21,8,,,,,24,0,24,0,,,,,left,0.383580347989,EZV,f,19,59.9948372583,Set,2017_05_17_1327,
1,2,,,,,0,21,21,8,,,,,25,0,25,0,,,,,right,0.400232422486,EZV,f,19,59.9948372583,Set,2017_05_17_1327,
1,2,,,,,0,21,21,8,,,,,26,0,26,0,,,,,left,0.333562939981,EZV,f,19,59.9948372583,Set,2017_05_17_1327,
1,2,,,,,0,21,21,8,,,,,27,0,27,0,,,,,right,0.300294712302,EZV,f,19,59.9948372583,Set,2017_05_17_1327,
1,2,,,,,0,21,21,8,,,,,28,0,28,0,,,,,down,0.683580584824,EZV,f,19,59.9948372583,Set,2017_05_17_1327,
1,2,,,,,0,21,21,8,,,,,29,0,29,0,,,,,right,0.550239646196,EZV,f,19,59.9948372583,Set,2017_05_17_1327,
1,2,,,,,0,21,21,8,,,,,30,0,30,0,,,,,down,0.966897957551,EZV,f,19,59.9948372583,Set,2017_05_17_1327,
1,2,,,,,0,21,21,8,,,,,31,0,31,0,,,,,left,0.433566966327,EZV,f,19,59.9948372583,Set,2017_05_17_1327,
1,2,,,,,0,21,21,8,,,,,32,0,32,0,,,,,down,0.483569374221,EZV,f,19,59.9948372583,Set,2017_05_17_1327,
1,2,,,,,0,21,21,8,,,,,33,0,33,0,,,,,right,0.583557611011,EZV,f,19,59.9948372583,Set,2017_05_17_1327,
1,2,,,,,0,21,21,8,,,,,34,0,34,0,,,,,down,0.500247106742,EZV,f,19,59.9948372583,Set,2017_05_17_1327,
1,2,,,,,0,21,21,8,,,,,35,0,35,0,,,,,down,1.8668718258,EZV,f,19,59.9948372583,Set,2017_05_17_1327,
1,2,,,,,0,21,21,8,,,,,36,0,36,0,,,,,right,0.550271620072,EZV,f,19,59.9948372583,Set,2017_05_17_1327,
1,2,,,,,0,21,21,8,,,,,37,0,37,0,,,,,right,0.516905102326,EZV,f,19,59.9948372583,Set,2017_05_17_1327,
1,2,,,,,0,21,21,8,,,,,38,0,38,0,,,,,down,0.500227369805,EZV,f,19,59.9948372583,Set,2017_05_17_1327,
1,2,,,,,0,21,21,8,,,,,39,0,39,0,,,,,right,0.416892786452,EZV,f,19,59.9948372583,Set,2017_05_17_1327,
1,2,,,,,0,21,21,8,,,,,40,0,40,0,,,,,down,1.1502184092,EZV,f,19,59.9948372583,Set,2017_05_17_1327,
1,2,,,,,0,21,21,8,,,,,41,0,41,0,,,,,left,0.533602177078,EZV,f,19,59.9948372583,Set,2017_05_17_1327,
1,2,,,,,0,21,21,8,,,,,42,0,42,0,,,,,right,0.366901825968,EZV,f,19,59.9948372583,Set,2017_05_17_1327,
1,2,,,,,0,21,21,8,,,,,43,0,43,0,,,,,right,0.466933089308,EZV,f,19,59.9948372583,Set,2017_05_17_1327,
1,2,,,,,0,21,21,8,,,,,44,0,44,0,,,,,down,0.550244383048,EZV,f,19,59.9948372583,Set,2017_05_17_1327,
1,2,,,,,0,21,21,8,,,,,45,0,45,0,,,,,right,0.33354517672,EZV,f,19,59.9948372583,Set,2017_05_17_1327,
1,2,,,,,0,21,21,8,,,,,46,0,46,0,,,,,right,0.433559861034,EZV,f,19,59.9948372583,Set,2017_05_17_1327,
1,2,,,,,0,21,21,8,,,,,47,0,47,0,,,,,right,0.866897878586,EZV,f,19,59.9948372583,Set,2017_05_17_1327,
1,2,,,,,0,21,21,8,,,,,48,0,48,0,,,,,right,0.400241501455,EZV,f,19,59.9948372583,Set,2017_05_17_1327,
1,2,,,,,0,21,21,8,,,,,49,0,49,0,,,,,left,1.00022223819,EZV,f,19,59.9948372583,Set,2017_05_17_1327,
1,2,,,,,0,21,21,8,,,,,50,0,50,0,,,,,left,1.00021868551,EZV,f,19,59.9948372583,Set,2017_05_17_1327,
1,2,,,,,0,21,21,8,,,,,51,0,51,0,,,,,right,0.483575690072,EZV,f,19,59.9948372583,Set,2017_05_17_1327,
1,2,,,,,0,21,21,8,,,,,52,0,52,0,,,,,right,0.766887536447,EZV,f,19,59.9948372583,Set,2017_05_17_1327,
1,2,,,,,0,21,21,8,,,,,53,0,53,0,,,,,right,0.48355318993,EZV,f,19,59.9948372583,Set,2017_05_17_1327,
1,2,,,,,0,21,21,8,,,,,54,0,54,0,,,,,right,0.383572058461,EZV,f,19,59.9948372583,Set,2017_05_17_1327,
1,2,,,,,0,21,21,8,,,,,55,0,55,0,,,,,right,0.466907431284,EZV,f,19,59.9948372583,Set,2017_05_17_1327,
1,2,,,,,0,21,21,8,,,,,56,0,56,0,,,,,down,0.633579755871,EZV,f,19,59.9948372583,Set,2017_05_17_1327,
1,2,,,,,0,21,21,8,,,,,57,0,57,0,,,,,right,0.533570203173,EZV,f,19,59.9948372583,Set,2017_05_17_1327,
1,2,,,,,0,21,21,8,,,,,58,0,58,0,,,,,right,0.466911773401,EZV,f,19,59.9948372583,Set,2017_05_17_1327,
1,2,,,,,0,21,21,8,,,,,59,0,59,0,,,,,down,1.31694836574,EZV,f,19,59.9948372583,Set,2017_05_17_1327,
1,2,,,,,0,21,21,8,,,,,60,0,60,0,,,,,right,0.350256856822,EZV,f,19,59.9948372583,Set,2017_05_17_1327,
1,2,,,,,0,21,21,8,,,,,61,0,61,0,,,,,left,1.0169058918,EZV,f,19,59.9948372583,Set,2017_05_17_1327,
1,2,,,,,0,21,21,8,,,,,62,0,62,0,,,,,down,0.600233369827,EZV,f,19,59.9948372583,Set,2017_05_17_1327,
1,2,,,,,0,21,21,8,,,,,63,0,63,0,,,,,down,1.15017735635,EZV,f,19,59.9948372583,Set,2017_05_17_1327,
1,2,,,,,0,21,21,8,,,,,64,0,64,0,,,,,left,1.1669127208,EZV,f,19,59.9948372583,Set,2017_05_17_1327,
1,2,,,,,0,21,21,8,,,,,65,0,65,0,,,,,down,0.883561005758,EZV,f,19,59.9948372583,Set,2017_05_17_1327,
1,2,,,,,0,21,21,8,,,,,66,0,66,0,,,,,down,1.33359372965,EZV,f,19,59.9948372583,Set,2017_05_17_1327,
8,1,,,,,0,22,22,7,,,,,0,0,0,0,,,,,down,0.733592861216,EZV,f,19,59.9948372583,Set,2017_05_17_1327,
8,1,,,,,0,22,22,7,,,,,1,0,1,0,,,,,left,0.416861602076,EZV,f,19,59.9948372583,Set,2017_05_17_1327,
8,1,,,,,0,22,22,7,,,,,2,0,2,0,,,,,left,0.350224882946,EZV,f,19,59.9948372583,Set,2017_05_17_1327,
8,1,,,,,0,22,22,7,,,,,3,0,3,0,,,,,right,0.450225356646,EZV,f,19,59.9948372583,Set,2017_05_17_1327,
8,1,,,,,0,22,22,7,,,,,4,0,4,0,,,,,right,2.38353771617,EZV,f,19,59.9948372583,Set,2017_05_17_1327,
8,1,,,,,0,22,22,7,,,,,5,0,5,0,,,,,left,0.316895865428,EZV,f,19,59.9948372583,Set,2017_05_17_1327,
8,1,,,,,0,22,22,7,,,,,6,0,6,0,,,,,down,0.633559229434,EZV,f,19,59.9948372583,Set,2017_05_17_1327,
8,1,,,,,0,22,22,7,,,,,7,0,7,0,,,,,right,0.383559821552,EZV,f,19,59.9948372583,Set,2017_05_17_1327,
8,1,,,,,0,22,22,7,,,,,8,0,8,0,,,,,right,0.966937826219,EZV,f,19,59.9948372583,Set,2017_05_17_1327,
8,1,,,,,0,22,22,7,,,,,9,0,9,0,,,,,right,0.90024347516,EZV,f,19,59.9948372583,Set,2017_05_17_1327,
8,1,,,,,0,22,22,7,,,,,10,0,10,0,,,,,right,0.433579597971,EZV,f,19,59.9948372583,Set,2017_05_17_1327,
8,1,,,,,0,22,22,7,,,,,11,0,11,0,,,,,left,0.700273712166,EZV,f,19,59.9948372583,Set,2017_05_17_1327,
8,1,,,,,0,22,22,7,,,,,12,0,12,0,,,,,right,0.350236330385,EZV,f,19,59.9948372583,Set,2017_05_17_1327,
8,1,,,,,0,22,22,7,,,,,13,0,13,0,,,,,left,0.433524334483,EZV,f,19,59.9948372583,Set,2017_05_17_1327,
8,1,,,,,0,22,22,7,,,,,14,0,14,0,,,,,right,0.483808191464,EZV,f,19,59.9948372583,Set,2017_05_17_1327,
8,1,,,,,0,22,22,7,,,,,15,0,15,0,,,,,left,0.466950852599,EZV,f,19,59.9948372583,Set,2017_05_17_1327,
8,1,,,,,0,22,22,7,,,,,16,0,16,0,,,,,left,0.533543755679,EZV,f,19,59.9948372583,Set,2017_05_17_1327,
8,1,,,,,0,22,22,7,,,,,17,0,17,0,,,,,down,0.633576203225,EZV,f,19,59.9948372583,Set,2017_05_17_1327,
8,1,,,,,0,22,22,7,,,,,18,0,18,0,,,,,left,0.500238817243,EZV,f,19,59.9948372583,Set,2017_05_17_1327,
8,1,,,,,0,22,22,7,,,,,19,0,19,0,,,,,right,0.416984365962,EZV,f,19,59.9948372583,Set,2017_05_17_1327,
8,1,,,,,0,22,22,7,,,,,20,0,20,0,,,,,left,0.350228830328,EZV,f,19,59.9948372583,Set,2017_05_17_1327,
8,1,,,,,0,22,22,7,,,,,21,0,21,0,,,,,down,0.550233725109,EZV,f,19,59.9948372583,Set,2017_05_17_1327,
8,1,,,,,0,22,22,7,,,,,22,0,22,0,,,,,right,0.633568308433,EZV,f,19,59.9948372583,Set,2017_05_17_1327,
8,1,,,,,0,22,22,7,,,,,23,0,23,0,,,,,down,0.833572808449,EZV,f,19,59.9948372583,Set,2017_05_17_1327,
8,1,,,,,0,22,22,7,,,,,24,0,24,0,,,,,down,1.7168780232,EZV,f,19,59.9948372583,Set,2017_05_17_1327,
8,1,,,,,0,22,22,7,,,,,25,0,25,0,,,,,right,0.783574742702,EZV,f,19,59.9948372583,Set,2017_05_17_1327,
8,1,,,,,0,22,22,7,,,,,26,0,26,0,,,,,left,0.466894404875,EZV,f,19,59.9948372583,Set,2017_05_17_1327,
8,1,,,,,0,22,22,7,,,,,27,0,27,0,,,,,down,0.533579676936,EZV,f,19,59.9948372583,Set,2017_05_17_1327,
8,1,,,,,0,22,22,7,,,,,28,0,28,0,,,,,down,0.733573124249,EZV,f,19,59.9948372583,Set,2017_05_17_1327,
8,1,,,,,0,22,22,7,,,,,29,0,29,0,,,,,right,0.500238817243,EZV,f,19,59.9948372583,Set,2017_05_17_1327,
8,1,,,,,0,22,22,7,,,,,30,0,30,0,,,,,right,1.03363020357,EZV,f,19,59.9948372583,Set,2017_05_17_1327,
8,1,,,,,0,22,22,7,,,,,31,0,31,0,,,,,down,0.550219909201,EZV,f,19,59.9948372583,Set,2017_05_17_1327,
8,1,,,,,0,22,22,7,,,,,32,0,32,0,,,,,down,0.466915326077,EZV,f,19,59.9948372583,Set,2017_05_17_1327,
6,3,,,,,0,23,23,21,,,,,0,0,0,0,,,,,right,0.966905062844,EZV,f,19,59.9948372583,Set,2017_05_17_1327,
6,3,,,,,0,23,23,21,,,,,1,0,1,0,,,,,left,0.466876246879,EZV,f,19,59.9948372583,Set,2017_05_17_1327,
6,3,,,,,0,23,23,21,,,,,2,0,2,0,,,,,right,0.450241935672,EZV,f,19,59.9948372583,Set,2017_05_17_1327,
6,3,,,,,0,23,23,21,,,,,3,0,3,0,,,,,down,0.583579321683,EZV,f,19,59.9948372583,Set,2017_05_17_1327,
6,3,,,,,0,23,23,21,,,,,4,0,4,0,,,,,down,0.600233369827,EZV,f,19,59.9948372583,Set,2017_05_17_1327,
6,3,,,,,0,23,23,21,,,,,5,0,5,0,,,,,left,2.56687751005,EZV,f,19,59.9948372583,Set,2017_05_17_1327,
6,3,,,,,0,23,23,21,,,,,6,0,6,0,,,,,right,1.01691615503,EZV,f,19,59.9948372583,Set,2017_05_17_1327,
6,3,,,,,0,23,23,21,,,,,7,0,7,0,,,,,left,0.466933089338,EZV,f,19,59.9948372583,Set,2017_05_17_1327,
6,3,,,,,0,23,23,21,,,,,8,0,8,0,,,,,right,0.416900681244,EZV,f,19,59.9948372583,Set,2017_05_17_1327,
6,3,,,,,0,23,23,21,,,,,9,0,9,0,,,,,down,0.516941418318,EZV,f,19,59.9948372583,Set,2017_05_17_1327,
6,3,,,,,0,23,23,21,,,,,10,0,10,0,,,,,left,0.550232935639,EZV,f,19,59.9948372583,Set,2017_05_17_1327,
6,3,,,,,0,23,23,21,,,,,11,0,11,0,,,,,right,0.633414360142,EZV,f,19,59.9948372583,Set,2017_05_17_1327,
6,3,,,,,0,23,23,21,,,,,12,0,12,0,,,,,left,1.05021240917,EZV,f,19,59.9948372583,Set,2017_05_17_1327,
6,3,,,,,0,23,23,21,,,,,13,0,13,0,,,,,down,0.800223264494,EZV,f,19,59.9948372583,Set,2017_05_17_1327,
6,3,,,,,0,23,23,21,,,,,14,0,14,0,,,,,left,0.433576440089,EZV,f,19,59.9948372583,Set,2017_05_17_1327,
6,3,,,,,0,23,23,21,,,,,15,0,15,0,,,,,right,0.450312988716,EZV,f,19,59.9948372583,Set,2017_05_17_1327,
6,3,,,,,0,23,23,21,,,,,16,0,16,0,,,,,right,0.350244225177,EZV,f,19,59.9948372583,Set,2017_05_17_1327,
6,3,,,,,0,23,23,21,,,,,17,0,17,0,,,,,right,0.433659730043,EZV,f,19,59.9948372583,Set,2017_05_17_1327,
6,3,,,,,0,23,23,21,,,,,18,0,18,0,,,,,left,0.400292817561,EZV,f,19,59.9948372583,Set,2017_05_17_1327,
6,3,,,,,0,23,23,21,,,,,19,0,19,0,,,,,right,0.350269093731,EZV,f,19,59.9948372583,Set,2017_05_17_1327,
6,3,,,,,0,23,23,21,,,,,20,0,20,0,,,,,down,0.666892194335,EZV,f,19,59.9948372583,Set,2017_05_17_1327,
6,3,,,,,0,23,23,21,,,,,21,0,21,0,,,,,right,0.483651479997,EZV,f,19,59.9948372583,Set,2017_05_17_1327,
6,3,,,,,0,23,23,21,,,,,22,0,22,0,,,,,down,0.716889470641,EZV,f,19,59.9948372583,Set,2017_05_17_1327,
6,3,,,,,0,23,23,21,,,,,23,0,23,0,,,,,right,0.416910549742,EZV,f,19,59.9948372583,Set,2017_05_17_1327,
6,3,,,,,0,23,23,21,,,,,24,0,24,0,,,,,right,0.433582361147,EZV,f,19,59.9948372583,Set,2017_05_17_1327,
6,3,,,,,0,23,23,21,,,,,25,0,25,0,,,,,left,0.466915326077,EZV,f,19,59.9948372583,Set,2017_05_17_1327,
6,3,,,,,0,23,23,21,,,,,26,0,26,0,,,,,right,0.400220975047,EZV,f,19,59.9948372583,Set,2017_05_17_1327,
6,3,,,,,0,23,23,21,,,,,27,0,27,0,,,,,right,0.400256106805,EZV,f,19,59.9948372583,Set,2017_05_17_1327,
6,3,,,,,0,23,23,21,,,,,28,0,28,0,,,,,right,0.466904273373,EZV,f,19,59.9948372583,Set,2017_05_17_1327,
6,3,,,,,0,23,23,21,,,,,29,0,29,0,,,,,right,0.516902733885,EZV,f,19,59.9948372583,Set,2017_05_17_1327,
6,3,,,,,0,23,23,21,,,,,30,0,30,0,,,,,down,0.61690360232,EZV,f,19,59.9948372583,Set,2017_05_17_1327,
6,3,,,,,0,23,23,21,,,,,31,0,31,0,,,,,right,0.366896694351,EZV,f,19,59.9948372583,Set,2017_05_17_1327,
6,3,,,,,0,23,23,21,,,,,32,0,32,0,,,,,right,0.483609242918,EZV,f,19,59.9948372583,Set,2017_05_17_1327,
6,3,,,,,0,23,23,21,,,,,33,0,33,0,,,,,right,0.650212488137,EZV,f,19,59.9948372583,Set,2017_05_17_1327,
6,3,,,,,0,23,23,21,,,,,34,0,34,0,,,,,down,0.650217619725,EZV,f,19,59.9948372583,Set,2017_05_17_1327,
6,3,,,,,0,23,23,21,,,,,35,0,35,0,,,,,left,0.783593690168,EZV,f,19,59.9948372583,Set,2017_05_17_1327,
6,3,,,,,0,23,23,21,,,,,36,0,36,0,,,,,right,0.716907628666,EZV,f,19,59.9948372583,Set,2017_05_17_1327,
6,3,,,,,0,23,23,21,,,,,37,0,37,0,,,,,right,0.716911970783,EZV,f,19,59.9948372583,Set,2017_05_17_1327,
6,3,,,,,0,23,23,21,,,,,38,0,38,0,,,,,down,0.566893299634,EZV,f,19,59.9948372583,Set,2017_05_17_1327,
6,3,,,,,0,23,23,21,,,,,39,0,39,0,,,,,down,0.616922155052,EZV,f,19,59.9948372583,Set,2017_05_17_1327,
