number_of_fixational_trials,size,estimating_threshold.thisRepN,estimating_threshold.thisTrialN,estimating_threshold.thisN,estimating_threshold.thisIndex,trials_2.thisRepN,trials_2.thisTrialN,trials_2.thisN,trials_2.thisIndex,trials.thisRepN,trials.thisTrialN,trials.thisN,trials.thisIndex,trials_3.thisRepN,trials_3.thisTrialN,trials_3.thisN,trials_3.thisIndex,rating_up.response,rating_up.rt,rating_down.response,rating_down.rt,answer.keys,answer.rt,participant,gender,age,frameRate,expName,date,
,,0,0,0,0,,,,,,,,,,,,,0.18,33.401,0.07,25.784,,,IKA,m,20,59.9782183287,Set,2017_05_22_1634,
,,1,0,1,0,,,,,,,,,,,,,0.24,9.713,0.25,16.914,,,IKA,m,20,59.9782183287,Set,2017_05_22_1634,
,,2,0,2,0,,,,,,,,,,,,,0.24,6.682,0.15,19.097,,,IKA,m,20,59.9782183287,Set,2017_05_22_1634,
3,1,,,,,0,0,0,2,,,,,0,0,0,0,,,,,right,15.2334831237,IKA,m,20,59.9782183287,Set,2017_05_22_1634,
3,1,,,,,0,0,0,2,,,,,1,0,1,0,,,,,down,6.16687995743,IKA,m,20,59.9782183287,Set,2017_05_22_1634,
3,1,,,,,0,0,0,2,,,,,2,0,2,0,,,,,down,0.916896733921,IKA,m,20,59.9782183287,Set,2017_05_22_1634,
3,1,,,,,0,0,0,2,,,,,3,0,3,0,,,,,right,0.633620413952,IKA,m,20,59.9782183287,Set,2017_05_22_1634,
3,1,,,,,0,0,0,2,,,,,4,0,4,0,,,,,down,1.43358196632,IKA,m,20,59.9782183287,Set,2017_05_22_1634,
3,1,,,,,0,0,0,2,,,,,5,0,5,0,,,,,down,0.700238580466,IKA,m,20,59.9782183287,Set,2017_05_22_1634,
3,1,,,,,0,0,0,2,,,,,6,0,6,0,,,,,right,0.5502499094,IKA,m,20,59.9782183287,Set,2017_05_22_1634,
3,1,,,,,0,0,0,2,,,,,7,0,7,0,,,,,down,0.600279159495,IKA,m,20,59.9782183287,Set,2017_05_22_1634,
3,1,,,,,0,0,0,2,,,,,8,0,8,0,,,,,down,0.716926970868,IKA,m,20,59.9782183287,Set,2017_05_22_1634,
3,1,,,,,0,0,0,2,,,,,9,0,9,0,,,,,right,0.533392570564,IKA,m,20,59.9782183287,Set,2017_05_22_1634,
3,1,,,,,0,0,0,2,,,,,10,0,10,0,,,,,down,0.51692089194,IKA,m,20,59.9782183287,Set,2017_05_22_1634,
3,1,,,,,0,0,0,2,,,,,11,0,11,0,,,,,right,0.367465118878,IKA,m,20,59.9782183287,Set,2017_05_22_1634,
3,1,,,,,0,0,0,2,,,,,12,0,12,0,,,,,down,0.350239882944,IKA,m,20,59.9782183287,Set,2017_05_22_1634,
3,1,,,,,0,0,0,2,,,,,13,0,13,0,,,,,down,0.383454031427,IKA,m,20,59.9782183287,Set,2017_05_22_1634,
3,2,,,,,0,1,1,10,,,,,0,0,0,0,,,,,right,1.83355504519,IKA,m,20,59.9782183287,Set,2017_05_22_1634,
3,2,,,,,0,1,1,10,,,,,1,0,1,0,,,,,down,0.850218172418,IKA,m,20,59.9782183287,Set,2017_05_22_1634,
3,2,,,,,0,1,1,10,,,,,2,0,2,0,,,,,down,0.833547150367,IKA,m,20,59.9782183287,Set,2017_05_22_1634,
3,2,,,,,0,1,1,10,,,,,3,0,3,0,,,,,right,0.233565624221,IKA,m,20,59.9782183287,Set,2017_05_22_1634,
3,2,,,,,0,1,1,10,,,,,4,0,4,0,,,,,down,0.500164211495,IKA,m,20,59.9782183287,Set,2017_05_22_1634,
3,2,,,,,0,1,1,10,,,,,5,0,5,0,,,,,down,0.48361990077,IKA,m,20,59.9782183287,Set,2017_05_22_1634,
3,2,,,,,0,1,1,10,,,,,6,0,6,0,,,,,right,0.416909760213,IKA,m,20,59.9782183287,Set,2017_05_22_1634,
3,2,,,,,0,1,1,10,,,,,7,0,7,0,,,,,down,0.716937628808,IKA,m,20,59.9782183287,Set,2017_05_22_1634,
3,2,,,,,0,1,1,10,,,,,8,0,8,0,,,,,down,0.383544821525,IKA,m,20,59.9782183287,Set,2017_05_22_1634,
3,2,,,,,0,1,1,10,,,,,9,0,9,0,,,,,right,0.167230485822,IKA,m,20,59.9782183287,Set,2017_05_22_1634,
3,2,,,,,0,1,1,10,,,,,10,0,10,0,,,,,right,0.383609953453,IKA,m,20,59.9782183287,Set,2017_05_22_1634,
3,2,,,,,0,1,1,10,,,,,11,0,11,0,,,,,right,1.75024217251,IKA,m,20,59.9782183287,Set,2017_05_22_1634,
3,2,,,,,0,1,1,10,,,,,12,0,12,0,,,,,right,0.733649703674,IKA,m,20,59.9782183287,Set,2017_05_22_1634,
3,2,,,,,0,1,1,10,,,,,13,0,13,0,,,,,down,0.950275093783,IKA,m,20,59.9782183287,Set,2017_05_22_1634,
3,2,,,,,0,1,1,10,,,,,14,0,14,0,,,,,down,0.983555953135,IKA,m,20,59.9782183287,Set,2017_05_22_1634,
3,2,,,,,0,1,1,10,,,,,15,0,15,0,,,,,right,0.466937826248,IKA,m,20,59.9782183287,Set,2017_05_22_1634,
3,2,,,,,0,1,1,10,,,,,16,0,16,0,,,,,down,0.45025812008,IKA,m,20,59.9782183287,Set,2017_05_22_1634,
3,2,,,,,0,1,1,10,,,,,17,0,17,0,,,,,down,0.650256698951,IKA,m,20,59.9782183287,Set,2017_05_22_1634,
6,1,,,,,0,2,2,5,,,,,0,0,0,0,,,,,right,2.35021146189,IKA,m,20,59.9782183287,Set,2017_05_22_1634,
6,1,,,,,0,2,2,5,,,,,1,0,1,0,,,,,down,2.40033071255,IKA,m,20,59.9782183287,Set,2017_05_22_1634,
6,1,,,,,0,2,2,5,,,,,2,0,2,0,,,,,down,0.433570913738,IKA,m,20,59.9782183287,Set,2017_05_22_1634,
4,3,,,,,0,3,3,19,,,,,0,0,0,0,,,,,down,0.850252909469,IKA,m,20,59.9782183287,Set,2017_05_22_1634,
4,3,,,,,0,3,3,19,,,,,1,0,1,0,,,,,down,0.783868033905,IKA,m,20,59.9782183287,Set,2017_05_22_1634,
5,2,,,,,0,4,4,12,,,,,0,0,0,0,,,,,left,2.18357466382,IKA,m,20,59.9782183287,Set,2017_05_22_1634,
5,2,,,,,0,4,4,12,,,,,1,0,1,0,,,,,down,1.10029613343,IKA,m,20,59.9782183287,Set,2017_05_22_1634,
5,2,,,,,0,4,4,12,,,,,2,0,2,0,,,,,down,0.800258791074,IKA,m,20,59.9782183287,Set,2017_05_22_1634,
8,1,,,,,0,5,5,7,,,,,0,0,0,0,,,,,right,2.75019875122,IKA,m,20,59.9782183287,Set,2017_05_22_1634,
8,1,,,,,0,5,5,7,,,,,1,0,1,0,,,,,down,0.783637506189,IKA,m,20,59.9782183287,Set,2017_05_22_1634,
8,1,,,,,0,5,5,7,,,,,2,0,2,0,,,,,down,0.900294396444,IKA,m,20,59.9782183287,Set,2017_05_22_1634,
7,3,,,,,0,6,6,22,,,,,0,0,0,0,,,,,down,1.96695558948,IKA,m,20,59.9782183287,Set,2017_05_22_1634,
7,3,,,,,0,6,6,22,,,,,1,0,1,0,,,,,down,1.51690273383,IKA,m,20,59.9782183287,Set,2017_05_22_1634,
7,3,,,,,0,6,6,22,,,,,2,0,2,0,,,,,right,1.90025610686,IKA,m,20,59.9782183287,Set,2017_05_22_1634,
7,3,,,,,0,6,6,22,,,,,3,0,3,0,,,,,down,1.00055145065,IKA,m,20,59.9782183287,Set,2017_05_22_1634,
7,3,,,,,0,6,6,22,,,,,4,0,4,0,,,,,down,1.25029783067,IKA,m,20,59.9782183287,Set,2017_05_22_1634,
6,2,,,,,0,7,7,13,,,,,0,0,0,0,,,,,right,0.650269330596,IKA,m,20,59.9782183287,Set,2017_05_22_1634,
6,2,,,,,0,7,7,13,,,,,1,0,1,0,,,,,down,0.783848691732,IKA,m,20,59.9782183287,Set,2017_05_22_1634,
6,2,,,,,0,7,7,13,,,,,2,0,2,0,,,,,down,1.80022602773,IKA,m,20,59.9782183287,Set,2017_05_22_1634,
4,2,,,,,0,8,8,11,,,,,0,0,0,0,,,,,right,2.90027939645,IKA,m,20,59.9782183287,Set,2017_05_22_1634,
4,2,,,,,0,8,8,11,,,,,1,0,1,0,,,,,down,0.916900286451,IKA,m,20,59.9782183287,Set,2017_05_22_1634,
4,2,,,,,0,8,8,11,,,,,2,0,2,0,,,,,down,1.10018876428,IKA,m,20,59.9782183287,Set,2017_05_22_1634,
2,1,,,,,0,9,9,1,,,,,0,0,0,0,,,,,down,0.833686493337,IKA,m,20,59.9782183287,Set,2017_05_22_1634,
2,1,,,,,0,9,9,1,,,,,1,0,1,0,,,,,down,0.716918286635,IKA,m,20,59.9782183287,Set,2017_05_22_1634,
1,3,,,,,0,10,10,16,,,,,0,0,0,0,,,,,right,3.10024086991,IKA,m,20,59.9782183287,Set,2017_05_22_1634,
1,3,,,,,0,10,10,16,,,,,1,0,1,0,,,,,down,0.933619466727,IKA,m,20,59.9782183287,Set,2017_05_22_1634,
1,3,,,,,0,10,10,16,,,,,2,0,2,0,,,,,down,0.950239172438,IKA,m,20,59.9782183287,Set,2017_05_22_1634,
7,1,,,,,0,11,11,6,,,,,0,0,0,0,,,,,right,0.633868310251,IKA,m,20,59.9782183287,Set,2017_05_22_1634,
7,1,,,,,0,11,11,6,,,,,1,0,1,0,,,,,down,0.800367344287,IKA,m,20,59.9782183287,Set,2017_05_22_1634,
7,1,,,,,0,11,11,6,,,,,2,0,2,0,,,,,down,0.533854415524,IKA,m,20,59.9782183287,Set,2017_05_22_1634,
5,3,,,,,0,12,12,20,,,,,0,0,0,0,,,,,left,2.21684565465,IKA,m,20,59.9782183287,Set,2017_05_22_1634,
5,3,,,,,0,12,12,20,,,,,1,0,1,0,,,,,left,2.70019002748,IKA,m,20,59.9782183287,Set,2017_05_22_1634,
5,3,,,,,0,12,12,20,,,,,2,0,2,0,,,,,down,0.70026542258,IKA,m,20,59.9782183287,Set,2017_05_22_1634,
5,3,,,,,0,12,12,20,,,,,3,0,3,0,,,,,down,0.683585716528,IKA,m,20,59.9782183287,Set,2017_05_22_1634,
1,2,,,,,0,13,13,8,,,,,0,0,0,0,,,,,down,6.55051162152,IKA,m,20,59.9782183287,Set,2017_05_22_1634,
1,2,,,,,0,13,13,8,,,,,1,0,1,0,,,,,down,0.883546005585,IKA,m,20,59.9782183287,Set,2017_05_22_1634,
5,1,,,,,0,14,14,4,,,,,0,0,0,0,,,,,down,0.716978286975,IKA,m,20,59.9782183287,Set,2017_05_22_1634,
5,1,,,,,0,14,14,4,,,,,1,0,1,0,,,,,down,2.01684431254,IKA,m,20,59.9782183287,Set,2017_05_22_1634,
3,3,,,,,0,15,15,18,,,,,0,0,0,0,,,,,left,1.03384059959,IKA,m,20,59.9782183287,Set,2017_05_22_1634,
3,3,,,,,0,15,15,18,,,,,1,0,1,0,,,,,down,0.65031354141,IKA,m,20,59.9782183287,Set,2017_05_22_1634,
3,3,,,,,0,15,15,18,,,,,2,0,2,0,,,,,down,0.700268580578,IKA,m,20,59.9782183287,Set,2017_05_22_1634,
1,1,,,,,0,16,16,0,,,,,0,0,0,0,,,,,down,1.65021604078,IKA,m,20,59.9782183287,Set,2017_05_22_1634,
1,1,,,,,0,16,16,0,,,,,1,0,1,0,,,,,down,0.850309357163,IKA,m,20,59.9782183287,Set,2017_05_22_1634,
7,2,,,,,0,17,17,14,,,,,0,0,0,0,,,,,left,2.13387462613,IKA,m,20,59.9782183287,Set,2017_05_22_1634,
7,2,,,,,0,17,17,14,,,,,1,0,1,0,,,,,down,0.850477516069,IKA,m,20,59.9782183287,Set,2017_05_22_1634,
7,2,,,,,0,17,17,14,,,,,2,0,2,0,,,,,down,0.700195159065,IKA,m,20,59.9782183287,Set,2017_05_22_1634,
2,3,,,,,0,18,18,17,,,,,0,0,0,0,,,,,down,0.766901747091,IKA,m,20,59.9782183287,Set,2017_05_22_1634,
2,3,,,,,0,18,18,17,,,,,1,0,1,0,,,,,down,0.717184340814,IKA,m,20,59.9782183287,Set,2017_05_22_1634,
8,3,,,,,0,19,19,23,,,,,0,0,0,0,,,,,down,1.36721801211,IKA,m,20,59.9782183287,Set,2017_05_22_1634,
8,3,,,,,0,19,19,23,,,,,1,0,1,0,,,,,down,1.21698697121,IKA,m,20,59.9782183287,Set,2017_05_22_1634,
4,1,,,,,0,20,20,3,,,,,0,0,0,0,,,,,down,0.816928628716,IKA,m,20,59.9782183287,Set,2017_05_22_1634,
4,1,,,,,0,20,20,3,,,,,1,0,1,0,,,,,down,0.750094540068,IKA,m,20,59.9782183287,Set,2017_05_22_1634,
8,2,,,,,0,21,21,15,,,,,0,0,0,0,,,,,left,1.55036162061,IKA,m,20,59.9782183287,Set,2017_05_22_1634,
8,2,,,,,0,21,21,15,,,,,1,0,1,0,,,,,down,0.767262933427,IKA,m,20,59.9782183287,Set,2017_05_22_1634,
8,2,,,,,0,21,21,15,,,,,2,0,2,0,,,,,down,0.633657914237,IKA,m,20,59.9782183287,Set,2017_05_22_1634,
2,2,,,,,0,22,22,9,,,,,0,0,0,0,,,,,down,1.31710902462,IKA,m,20,59.9782183287,Set,2017_05_22_1634,
2,2,,,,,0,22,22,9,,,,,1,0,1,0,,,,,down,1.88394429756,IKA,m,20,59.9782183287,Set,2017_05_22_1634,
6,3,,,,,0,23,23,21,,,,,0,0,0,0,,,,,down,1.10016468517,IKA,m,20,59.9782183287,Set,2017_05_22_1634,
6,3,,,,,0,23,23,21,,,,,1,0,1,0,,,,,down,0.683643743163,IKA,m,20,59.9782183287,Set,2017_05_22_1634,
