number_of_fixational_trials,size,estimating_threshold.thisRepN,estimating_threshold.thisTrialN,estimating_threshold.thisN,estimating_threshold.thisIndex,trials_2.thisRepN,trials_2.thisTrialN,trials_2.thisN,trials_2.thisIndex,trials.thisRepN,trials.thisTrialN,trials.thisN,trials.thisIndex,trials_3.thisRepN,trials_3.thisTrialN,trials_3.thisN,trials_3.thisIndex,rating_up.response,rating_up.rt,rating_down.response,rating_down.rt,answer.keys,answer.rt,participant,gender,age,frameRate,expName,date,
,,0,0,0,0,,,,,,,,,,,,,0.16,36.768,1.0,6.334,,,KLE,f,21,60.0174367562,Set,2017_05_17_1645,
,,1,0,1,0,,,,,,,,,,,,,0.1,10.948,0.56,21.685,,,KLE,f,21,60.0174367562,Set,2017_05_17_1645,
,,2,0,2,0,,,,,,,,,,,,,0.43,19.072,0.54,15.647,,,KLE,f,21,60.0174367562,Set,2017_05_17_1645,
2,1,,,,,0,0,0,1,,,,,0,0,0,0,,,,,down,9.17537592992,KLE,f,21,60.0174367562,Set,2017_05_17_1645,
2,1,,,,,0,0,0,1,,,,,1,0,1,0,,,,,down,1.44213596557,KLE,f,21,60.0174367562,Set,2017_05_17_1645,
5,3,,,,,0,1,1,20,,,,,0,0,0,0,,,,,left,4.54204999135,KLE,f,21,60.0174367562,Set,2017_05_17_1645,
5,3,,,,,0,1,1,20,,,,,1,0,1,0,,,,,down,1.54213012342,KLE,f,21,60.0174367562,Set,2017_05_17_1645,
5,3,,,,,0,1,1,20,,,,,2,0,2,0,,,,,down,0.642164544697,KLE,f,21,60.0174367562,Set,2017_05_17_1645,
2,2,,,,,0,2,2,9,,,,,0,0,0,0,,,,,left,2.10877118469,KLE,f,21,60.0174367562,Set,2017_05_17_1645,
2,2,,,,,0,2,2,9,,,,,1,0,1,0,,,,,down,0.725305705797,KLE,f,21,60.0174367562,Set,2017_05_17_1645,
2,2,,,,,0,2,2,9,,,,,2,0,2,0,,,,,left,1.02547686471,KLE,f,21,60.0174367562,Set,2017_05_17_1645,
2,2,,,,,0,2,2,9,,,,,3,0,3,0,,,,,left,0.458780145244,KLE,f,21,60.0174367562,Set,2017_05_17_1645,
2,2,,,,,0,2,2,9,,,,,4,0,4,0,,,,,left,1.80877963209,KLE,f,21,60.0174367562,Set,2017_05_17_1645,
2,2,,,,,0,2,2,9,,,,,5,0,5,0,,,,,left,0.492119425995,KLE,f,21,60.0174367562,Set,2017_05_17_1645,
2,2,,,,,0,2,2,9,,,,,6,0,6,0,,,,,left,0.392130004999,KLE,f,21,60.0174367562,Set,2017_05_17_1645,
2,2,,,,,0,2,2,9,,,,,7,0,7,0,,,,,left,0.925458627782,KLE,f,21,60.0174367562,Set,2017_05_17_1645,
2,2,,,,,0,2,2,9,,,,,8,0,8,0,,,,,down,0.392137505056,KLE,f,21,60.0174367562,Set,2017_05_17_1645,
2,2,,,,,0,2,2,9,,,,,9,0,9,0,,,,,down,0.842144570895,KLE,f,21,60.0174367562,Set,2017_05_17_1645,
2,3,,,,,0,3,3,17,,,,,0,0,0,0,,,,,left,0.892132373439,KLE,f,21,60.0174367562,Set,2017_05_17_1645,
2,3,,,,,0,3,3,17,,,,,1,0,1,0,,,,,down,0.850248172559,KLE,f,21,60.0174367562,Set,2017_05_17_1645,
2,3,,,,,0,3,3,17,,,,,2,0,2,0,,,,,down,0.40882234287,KLE,f,21,60.0174367562,Set,2017_05_17_1645,
8,2,,,,,0,4,4,15,,,,,0,0,0,0,,,,,left,4.57542914076,KLE,f,21,60.0174367562,Set,2017_05_17_1645,
8,2,,,,,0,4,4,15,,,,,1,0,1,0,,,,,down,0.65881622443,KLE,f,21,60.0174367562,Set,2017_05_17_1645,
8,2,,,,,0,4,4,15,,,,,2,0,2,0,,,,,left,1.03354967674,KLE,f,21,60.0174367562,Set,2017_05_17_1645,
8,2,,,,,0,4,4,15,,,,,3,0,3,0,,,,,down,0.692112873308,KLE,f,21,60.0174367562,Set,2017_05_17_1645,
8,2,,,,,0,4,4,15,,,,,4,0,4,0,,,,,left,1.1587787242,KLE,f,21,60.0174367562,Set,2017_05_17_1645,
8,2,,,,,0,4,4,15,,,,,5,0,5,0,,,,,left,0.342207729147,KLE,f,21,60.0174367562,Set,2017_05_17_1645,
8,2,,,,,0,4,4,15,,,,,6,0,6,0,,,,,left,0.358873619494,KLE,f,21,60.0174367562,Set,2017_05_17_1645,
8,2,,,,,0,4,4,15,,,,,7,0,7,0,,,,,left,0.375412798574,KLE,f,21,60.0174367562,Set,2017_05_17_1645,
8,2,,,,,0,4,4,15,,,,,8,0,8,0,,,,,left,0.342143781396,KLE,f,21,60.0174367562,Set,2017_05_17_1645,
8,2,,,,,0,4,4,15,,,,,9,0,9,0,,,,,left,0.37550398332,KLE,f,21,60.0174367562,Set,2017_05_17_1645,
8,2,,,,,0,4,4,15,,,,,10,0,10,0,,,,,left,0.592152268277,KLE,f,21,60.0174367562,Set,2017_05_17_1645,
8,2,,,,,0,4,4,15,,,,,11,0,11,0,,,,,left,0.625427206513,KLE,f,21,60.0174367562,Set,2017_05_17_1645,
8,2,,,,,0,4,4,15,,,,,12,0,12,0,,,,,down,0.542132491828,KLE,f,21,60.0174367562,Set,2017_05_17_1645,
8,2,,,,,0,4,4,15,,,,,13,0,13,0,,,,,down,0.458803829591,KLE,f,21,60.0174367562,Set,2017_05_17_1645,
3,1,,,,,0,5,5,2,,,,,0,0,0,0,,,,,left,0.850252909411,KLE,f,21,60.0174367562,Set,2017_05_17_1645,
3,1,,,,,0,5,5,2,,,,,1,0,1,0,,,,,down,2.92543652238,KLE,f,21,60.0174367562,Set,2017_05_17_1645,
3,1,,,,,0,5,5,2,,,,,2,0,2,0,,,,,down,0.375348061323,KLE,f,21,60.0174367562,Set,2017_05_17_1645,
6,2,,,,,0,6,6,13,,,,,0,0,0,0,,,,,left,1.00887097477,KLE,f,21,60.0174367562,Set,2017_05_17_1645,
6,2,,,,,0,6,6,13,,,,,1,0,1,0,,,,,down,0.475455509324,KLE,f,21,60.0174367562,Set,2017_05_17_1645,
6,2,,,,,0,6,6,13,,,,,2,0,2,0,,,,,down,0.358799803274,KLE,f,21,60.0174367562,Set,2017_05_17_1645,
7,2,,,,,0,7,7,14,,,,,0,0,0,0,,,,,left,0.625452469831,KLE,f,21,60.0174367562,Set,2017_05_17_1645,
7,2,,,,,0,7,7,14,,,,,1,0,1,0,,,,,left,0.875460561976,KLE,f,21,60.0174367562,Set,2017_05_17_1645,
7,2,,,,,0,7,7,14,,,,,2,0,2,0,,,,,down,0.358772960986,KLE,f,21,60.0174367562,Set,2017_05_17_1645,
7,2,,,,,0,7,7,14,,,,,3,0,3,0,,,,,down,0.358787171601,KLE,f,21,60.0174367562,Set,2017_05_17_1645,
7,2,,,,,0,7,7,14,,,,,4,0,4,0,,,,,left,0.692140899802,KLE,f,21,60.0174367562,Set,2017_05_17_1645,
7,2,,,,,0,7,7,14,,,,,5,0,5,0,,,,,left,0.442166755209,KLE,f,21,60.0174367562,Set,2017_05_17_1645,
7,2,,,,,0,7,7,14,,,,,6,0,6,0,,,,,down,0.375457404094,KLE,f,21,60.0174367562,Set,2017_05_17_1645,
7,2,,,,,0,7,7,14,,,,,7,0,7,0,,,,,left,0.37547319365,KLE,f,21,60.0174367562,Set,2017_05_17_1645,
7,2,,,,,0,7,7,14,,,,,8,0,8,0,,,,,down,0.692132610275,KLE,f,21,60.0174367562,Set,2017_05_17_1645,
7,2,,,,,0,7,7,14,,,,,9,0,9,0,,,,,down,0.358623749547,KLE,f,21,60.0174367562,Set,2017_05_17_1645,
1,3,,,,,0,8,8,16,,,,,0,0,0,0,,,,,left,1.8921402682,KLE,f,21,60.0174367562,Set,2017_05_17_1645,
1,3,,,,,0,8,8,16,,,,,1,0,1,0,,,,,left,0.608796842716,KLE,f,21,60.0174367562,Set,2017_05_17_1645,
1,3,,,,,0,8,8,16,,,,,2,0,2,0,,,,,down,0.425479943689,KLE,f,21,60.0174367562,Set,2017_05_17_1645,
1,3,,,,,0,8,8,16,,,,,3,0,3,0,,,,,down,0.29211729439,KLE,f,21,60.0174367562,Set,2017_05_17_1645,
8,3,,,,,0,9,9,23,,,,,0,0,0,0,,,,,left,0.600250343618,KLE,f,21,60.0174367562,Set,2017_05_17_1645,
8,3,,,,,0,9,9,23,,,,,1,0,1,0,,,,,left,0.558790487412,KLE,f,21,60.0174367562,Set,2017_05_17_1645,
8,3,,,,,0,9,9,23,,,,,2,0,2,0,,,,,left,0.858796645334,KLE,f,21,60.0174367562,Set,2017_05_17_1645,
8,3,,,,,0,9,9,23,,,,,3,0,3,0,,,,,left,0.650226304017,KLE,f,21,60.0174367562,Set,2017_05_17_1645,
8,3,,,,,0,9,9,23,,,,,4,0,4,0,,,,,left,0.392138689262,KLE,f,21,60.0174367562,Set,2017_05_17_1645,
8,3,,,,,0,9,9,23,,,,,5,0,5,0,,,,,down,0.775461667276,KLE,f,21,60.0174367562,Set,2017_05_17_1645,
8,3,,,,,0,9,9,23,,,,,6,0,6,0,,,,,left,0.358792303217,KLE,f,21,60.0174367562,Set,2017_05_17_1645,
8,3,,,,,0,9,9,23,,,,,7,0,7,0,,,,,left,0.392131978675,KLE,f,21,60.0174367562,Set,2017_05_17_1645,
8,3,,,,,0,9,9,23,,,,,8,0,8,0,,,,,left,0.341984306753,KLE,f,21,60.0174367562,Set,2017_05_17_1645,
8,3,,,,,0,9,9,23,,,,,9,0,9,0,,,,,left,0.392058951955,KLE,f,21,60.0174367562,Set,2017_05_17_1645,
8,3,,,,,0,9,9,23,,,,,10,0,10,0,,,,,left,0.475474851555,KLE,f,21,60.0174367562,Set,2017_05_17_1645,
8,3,,,,,0,9,9,23,,,,,11,0,11,0,,,,,left,0.358805724361,KLE,f,21,60.0174367562,Set,2017_05_17_1645,
8,3,,,,,0,9,9,23,,,,,12,0,12,0,,,,,left,0.375447535596,KLE,f,21,60.0174367562,Set,2017_05_17_1645,
8,3,,,,,0,9,9,23,,,,,13,0,13,0,,,,,left,1.10024086986,KLE,f,21,60.0174367562,Set,2017_05_17_1645,
8,3,,,,,0,9,9,23,,,,,14,0,14,0,,,,,left,0.375463325181,KLE,f,21,60.0174367562,Set,2017_05_17_1645,
8,3,,,,,0,9,9,23,,,,,15,0,15,0,,,,,left,0.542125386535,KLE,f,21,60.0174367562,Set,2017_05_17_1645,
8,3,,,,,0,9,9,23,,,,,16,0,16,0,,,,,left,0.825434864499,KLE,f,21,60.0174367562,Set,2017_05_17_1645,
8,3,,,,,0,9,9,23,,,,,17,0,17,0,,,,,down,0.533580071671,KLE,f,21,60.0174367562,Set,2017_05_17_1645,
8,3,,,,,0,9,9,23,,,,,18,0,18,0,,,,,down,0.358774539956,KLE,f,21,60.0174367562,Set,2017_05_17_1645,
5,1,,,,,0,10,10,4,,,,,0,0,0,0,,,,,left,0.675466325192,KLE,f,21,60.0174367562,Set,2017_05_17_1645,
5,1,,,,,0,10,10,4,,,,,1,0,1,0,,,,,left,0.30881042176,KLE,f,21,60.0174367562,Set,2017_05_17_1645,
5,1,,,,,0,10,10,4,,,,,2,0,2,0,,,,,left,0.275456140895,KLE,f,21,60.0174367562,Set,2017_05_17_1645,
5,1,,,,,0,10,10,4,,,,,3,0,3,0,,,,,left,0.458803829591,KLE,f,21,60.0174367562,Set,2017_05_17_1645,
5,1,,,,,0,10,10,4,,,,,4,0,4,0,,,,,left,0.708780342626,KLE,f,21,60.0174367562,Set,2017_05_17_1645,
5,1,,,,,0,10,10,4,,,,,5,0,5,0,,,,,down,3.77541311434,KLE,f,21,60.0174367562,Set,2017_05_17_1645,
5,1,,,,,0,10,10,4,,,,,6,0,6,0,,,,,left,2.42540770641,KLE,f,21,60.0174367562,Set,2017_05_17_1645,
5,1,,,,,0,10,10,4,,,,,7,0,7,0,,,,,down,0.575785985013,KLE,f,21,60.0174367562,Set,2017_05_17_1645,
5,1,,,,,0,10,10,4,,,,,8,0,8,0,,,,,down,0.425444022432,KLE,f,21,60.0174367562,Set,2017_05_17_1645,
1,1,,,,,0,11,11,0,,,,,0,0,0,0,,,,,down,1.09213292607,KLE,f,21,60.0174367562,Set,2017_05_17_1645,
1,1,,,,,0,11,11,0,,,,,1,0,1,0,,,,,down,0.308905159181,KLE,f,21,60.0174367562,Set,2017_05_17_1645,
1,1,,,,,0,11,11,0,,,,,2,0,2,0,,,,,left,0.542067359871,KLE,f,21,60.0174367562,Set,2017_05_17_1645,
1,1,,,,,0,11,11,0,,,,,3,0,3,0,,,,,down,0.292148478795,KLE,f,21,60.0174367562,Set,2017_05_17_1645,
1,1,,,,,0,11,11,0,,,,,4,0,4,0,,,,,down,0.292211637046,KLE,f,21,60.0174367562,Set,2017_05_17_1645,
8,1,,,,,0,12,12,7,,,,,0,0,0,0,,,,,down,0.883547189878,KLE,f,21,60.0174367562,Set,2017_05_17_1645,
8,1,,,,,0,12,12,7,,,,,1,0,1,0,,,,,down,0.733554176753,KLE,f,21,60.0174367562,Set,2017_05_17_1645,
7,3,,,,,0,13,13,22,,,,,0,0,0,0,,,,,left,1.84214338666,KLE,f,21,60.0174367562,Set,2017_05_17_1645,
7,3,,,,,0,13,13,22,,,,,1,0,1,0,,,,,down,2.34210430746,KLE,f,21,60.0174367562,Set,2017_05_17_1645,
7,3,,,,,0,13,13,22,,,,,2,0,2,0,,,,,down,0.542132886592,KLE,f,21,60.0174367562,Set,2017_05_17_1645,
7,3,,,,,0,13,13,22,,,,,3,0,3,0,,,,,left,1.48355713731,KLE,f,21,60.0174367562,Set,2017_05_17_1645,
7,3,,,,,0,13,13,22,,,,,4,0,4,0,,,,,down,0.408805763815,KLE,f,21,60.0174367562,Set,2017_05_17_1645,
7,3,,,,,0,13,13,22,,,,,5,0,5,0,,,,,down,0.442124123394,KLE,f,21,60.0174367562,Set,2017_05_17_1645,
7,3,,,,,0,13,13,22,,,,,6,0,6,0,,,,,left,0.716909207607,KLE,f,21,60.0174367562,Set,2017_05_17_1645,
7,3,,,,,0,13,13,22,,,,,7,0,7,0,,,,,left,0.875475956826,KLE,f,21,60.0174367562,Set,2017_05_17_1645,
7,3,,,,,0,13,13,22,,,,,8,0,8,0,,,,,down,0.408876816888,KLE,f,21,60.0174367562,Set,2017_05_17_1645,
7,3,,,,,0,13,13,22,,,,,9,0,9,0,,,,,left,0.408913527644,KLE,f,21,60.0174367562,Set,2017_05_17_1645,
7,3,,,,,0,13,13,22,,,,,10,0,10,0,,,,,left,0.47547603579,KLE,f,21,60.0174367562,Set,2017_05_17_1645,
7,3,,,,,0,13,13,22,,,,,11,0,11,0,,,,,left,0.625417732808,KLE,f,21,60.0174367562,Set,2017_05_17_1645,
7,3,,,,,0,13,13,22,,,,,12,0,12,0,,,,,down,0.47543221974,KLE,f,21,60.0174367562,Set,2017_05_17_1645,
7,3,,,,,0,13,13,22,,,,,13,0,13,0,,,,,down,0.308824237611,KLE,f,21,60.0174367562,Set,2017_05_17_1645,
3,2,,,,,0,14,14,10,,,,,0,0,0,0,,,,,left,0.692110899603,KLE,f,21,60.0174367562,Set,2017_05_17_1645,
3,2,,,,,0,14,14,10,,,,,1,0,1,0,,,,,left,1.0755061149,KLE,f,21,60.0174367562,Set,2017_05_17_1645,
3,2,,,,,0,14,14,10,,,,,2,0,2,0,,,,,down,0.442135965568,KLE,f,21,60.0174367562,Set,2017_05_17_1645,
3,2,,,,,0,14,14,10,,,,,3,0,3,0,,,,,down,0.39213158394,KLE,f,21,60.0174367562,Set,2017_05_17_1645,
4,2,,,,,0,15,15,11,,,,,0,0,0,0,,,,,left,0.575469404139,KLE,f,21,60.0174367562,Set,2017_05_17_1645,
4,2,,,,,0,15,15,11,,,,,1,0,1,0,,,,,left,0.750252830476,KLE,f,21,60.0174367562,Set,2017_05_17_1645,
4,2,,,,,0,15,15,11,,,,,2,0,2,0,,,,,left,0.592121478636,KLE,f,21,60.0174367562,Set,2017_05_17_1645,
4,2,,,,,0,15,15,11,,,,,3,0,3,0,,,,,left,0.458793566388,KLE,f,21,60.0174367562,Set,2017_05_17_1645,
4,2,,,,,0,15,15,11,,,,,4,0,4,0,,,,,down,0.625529443991,KLE,f,21,60.0174367562,Set,2017_05_17_1645,
4,2,,,,,0,15,15,11,,,,,5,0,5,0,,,,,left,0.50879597431,KLE,f,21,60.0174367562,Set,2017_05_17_1645,
4,2,,,,,0,15,15,11,,,,,6,0,6,0,,,,,down,0.375448719831,KLE,f,21,60.0174367562,Set,2017_05_17_1645,
4,2,,,,,0,15,15,11,,,,,7,0,7,0,,,,,down,0.342135491868,KLE,f,21,60.0174367562,Set,2017_05_17_1645,
6,3,,,,,0,16,16,21,,,,,0,0,0,0,,,,,left,0.608789737424,KLE,f,21,60.0174367562,Set,2017_05_17_1645,
6,3,,,,,0,16,16,21,,,,,1,0,1,0,,,,,down,0.48356621631,KLE,f,21,60.0174367562,Set,2017_05_17_1645,
6,3,,,,,0,16,16,21,,,,,2,0,2,0,,,,,left,1.19212353128,KLE,f,21,60.0174367562,Set,2017_05_17_1645,
6,3,,,,,0,16,16,21,,,,,3,0,3,0,,,,,down,0.375484246353,KLE,f,21,60.0174367562,Set,2017_05_17_1645,
6,3,,,,,0,16,16,21,,,,,4,0,4,0,,,,,down,0.475454719854,KLE,f,21,60.0174367562,Set,2017_05_17_1645,
4,1,,,,,0,17,17,3,,,,,0,0,0,0,,,,,down,2.14212704447,KLE,f,21,60.0174367562,Set,2017_05_17_1645,
4,1,,,,,0,17,17,3,,,,,1,0,1,0,,,,,down,0.308787132148,KLE,f,21,60.0174367562,Set,2017_05_17_1645,
6,1,,,,,0,18,18,5,,,,,0,0,0,0,,,,,down,0.366904194409,KLE,f,21,60.0174367562,Set,2017_05_17_1645,
6,1,,,,,0,18,18,5,,,,,1,0,1,0,,,,,down,0.442213729199,KLE,f,21,60.0174367562,Set,2017_05_17_1645,
4,3,,,,,0,19,19,19,,,,,0,0,0,0,,,,,down,0.408825500781,KLE,f,21,60.0174367562,Set,2017_05_17_1645,
4,3,,,,,0,19,19,19,,,,,1,0,1,0,,,,,left,1.12545839095,KLE,f,21,60.0174367562,Set,2017_05_17_1645,
4,3,,,,,0,19,19,19,,,,,2,0,2,0,,,,,left,0.492138373462,KLE,f,21,60.0174367562,Set,2017_05_17_1645,
4,3,,,,,0,19,19,19,,,,,3,0,3,0,,,,,down,1.30878792159,KLE,f,21,60.0174367562,Set,2017_05_17_1645,
4,3,,,,,0,19,19,19,,,,,4,0,4,0,,,,,left,1.67545211458,KLE,f,21,60.0174367562,Set,2017_05_17_1645,
4,3,,,,,0,19,19,19,,,,,5,0,5,0,,,,,down,0.308861737838,KLE,f,21,60.0174367562,Set,2017_05_17_1645,
4,3,,,,,0,19,19,19,,,,,6,0,6,0,,,,,down,0.342152070894,KLE,f,21,60.0174367562,Set,2017_05_17_1645,
7,1,,,,,0,20,20,6,,,,,0,0,0,0,,,,,down,1.22548254897,KLE,f,21,60.0174367562,Set,2017_05_17_1645,
7,1,,,,,0,20,20,6,,,,,1,0,1,0,,,,,down,0.975459062,KLE,f,21,60.0174367562,Set,2017_05_17_1645,
3,3,,,,,0,21,21,18,,,,,0,0,0,0,,,,,left,0.658779118909,KLE,f,21,60.0174367562,Set,2017_05_17_1645,
3,3,,,,,0,21,21,18,,,,,1,0,1,0,,,,,down,0.392138689262,KLE,f,21,60.0174367562,Set,2017_05_17_1645,
3,3,,,,,0,21,21,18,,,,,2,0,2,0,,,,,down,0.258781961049,KLE,f,21,60.0174367562,Set,2017_05_17_1645,
5,2,,,,,0,22,22,12,,,,,0,0,0,0,,,,,left,0.708780342626,KLE,f,21,60.0174367562,Set,2017_05_17_1645,
5,2,,,,,0,22,22,12,,,,,1,0,1,0,,,,,down,0.575472956814,KLE,f,21,60.0174367562,Set,2017_05_17_1645,
5,2,,,,,0,22,22,12,,,,,2,0,2,0,,,,,down,0.342101939052,KLE,f,21,60.0174367562,Set,2017_05_17_1645,
1,2,,,,,0,23,23,8,,,,,0,0,0,0,,,,,left,1.00024079095,KLE,f,21,60.0174367562,Set,2017_05_17_1645,
1,2,,,,,0,23,23,8,,,,,1,0,1,0,,,,,down,0.458791592682,KLE,f,21,60.0174367562,Set,2017_05_17_1645,
1,2,,,,,0,23,23,8,,,,,2,0,2,0,,,,,down,0.375420298602,KLE,f,21,60.0174367562,Set,2017_05_17_1645,
