size,n,trials_2.thisRepN,trials_2.thisTrialN,trials_2.thisN,trials_2.thisIndex,trials.thisRepN,trials.thisTrialN,trials.thisN,trials.thisIndex,trials_3.thisRepN,trials_3.thisTrialN,trials_3.thisN,trials_3.thisIndex,answer.keys,answer.rt,participant,gender,age,frameRate,expName,date,
"[2.6, 2.6]",3,0,0,0,2,,,,,0,0,0,0,down,6.43353578192,IOA,f,20,60.0064902133,Set,2017_12_14_1607,
"[2.6, 2.6]",3,0,0,0,2,,,,,1,0,1,0,down,4.13356041365,IOA,f,20,60.0064902133,Set,2017_12_14_1607,
"[2.6, 2.6]",3,0,0,0,2,,,,,2,0,2,0,right,0.950310225555,IOA,f,20,60.0064902133,Set,2017_12_14_1607,
"[2.6, 2.6]",3,0,0,0,2,,,,,3,0,3,0,down,1.50023368563,IOA,f,20,60.0064902133,Set,2017_12_14_1607,
"[2.6, 2.6]",3,0,0,0,2,,,,,4,0,4,0,right,0.816907312859,IOA,f,20,60.0064902133,Set,2017_12_14_1607,
"[2.6, 2.6]",3,0,0,0,2,,,,,5,0,5,0,left,3.40019689593,IOA,f,20,60.0064902133,Set,2017_12_14_1607,
"[2.6, 2.6]",3,0,0,0,2,,,,,6,0,6,0,down,1.30022563295,IOA,f,20,60.0064902133,Set,2017_12_14_1607,
"[2.6, 2.6]",3,0,0,0,2,,,,,7,0,7,0,right,0.55023530405,IOA,f,20,60.0064902133,Set,2017_12_14_1607,
"[2.6, 2.6]",3,0,0,0,2,,,,,8,0,8,0,right,0.633582124312,IOA,f,20,60.0064902133,Set,2017_12_14_1607,
"[2.6, 2.6]",3,0,0,0,2,,,,,9,0,9,0,right,1.43361433503,IOA,f,20,60.0064902133,Set,2017_12_14_1607,
"[2.6, 2.6]",3,0,0,0,2,,,,,10,0,10,0,right,0.633565940007,IOA,f,20,60.0064902133,Set,2017_12_14_1607,
"[2.6, 2.6]",3,0,0,0,2,,,,,11,0,11,0,down,2.16689732596,IOA,f,20,60.0064902133,Set,2017_12_14_1607,
"[2.6, 2.6]",3,0,0,0,2,,,,,12,0,12,0,right,1.46689322067,IOA,f,20,60.0064902133,Set,2017_12_14_1607,
"[2.6, 2.6]",3,0,0,0,2,,,,,13,0,13,0,right,0.650276830624,IOA,f,20,60.0064902133,Set,2017_12_14_1607,
"[2.6, 2.6]",3,0,0,0,2,,,,,14,0,14,0,right,0.566733035485,IOA,f,20,60.0064902133,Set,2017_12_14_1607,
"[2.6, 2.6]",3,0,0,0,2,,,,,15,0,15,0,right,0.416917655028,IOA,f,20,60.0064902133,Set,2017_12_14_1607,
"[2.6, 2.6]",3,0,0,0,2,,,,,16,0,16,0,right,0.400225711892,IOA,f,20,60.0064902133,Set,2017_12_14_1607,
"[2.6, 2.6]",3,0,0,0,2,,,,,17,0,17,0,right,0.533564282101,IOA,f,20,60.0064902133,Set,2017_12_14_1607,
"[2.6, 2.6]",3,0,0,0,2,,,,,18,0,18,0,right,1.36694564204,IOA,f,20,60.0064902133,Set,2017_12_14_1607,
"[2.6, 2.6]",3,0,0,0,2,,,,,19,0,19,0,right,0.883579953246,IOA,f,20,60.0064902133,Set,2017_12_14_1607,
"[2.6, 2.6]",3,0,0,0,2,,,,,20,0,20,0,right,0.717005523984,IOA,f,20,60.0064902133,Set,2017_12_14_1607,
"[2.6, 2.6]",3,0,0,0,2,,,,,21,0,21,0,right,0.433569729496,IOA,f,20,60.0064902133,Set,2017_12_14_1607,
"[2.6, 2.6]",3,0,0,0,2,,,,,22,0,22,0,right,0.966917694503,IOA,f,20,60.0064902133,Set,2017_12_14_1607,
"[2.6, 2.6]",3,0,0,0,2,,,,,23,0,23,0,down,0.783563689991,IOA,f,20,60.0064902133,Set,2017_12_14_1607,
"[2.6, 2.6]",3,0,0,0,2,,,,,24,0,24,0,down,0.850065803024,IOA,f,20,60.0064902133,Set,2017_12_14_1607,
"[2.6, 2.6]",3,0,0,0,2,,,,,25,0,25,0,right,0.833805704613,IOA,f,20,60.0064902133,Set,2017_12_14_1607,
"[2.6, 2.6]",3,0,0,0,2,,,,,26,0,26,0,right,0.583803138812,IOA,f,20,60.0064902133,Set,2017_12_14_1607,
"[2.6, 2.6]",3,0,0,0,2,,,,,27,0,27,0,right,1.53358165063,IOA,f,20,60.0064902133,Set,2017_12_14_1607,
"[2.6, 2.6]",3,0,0,0,2,,,,,28,0,28,0,right,1.98353661088,IOA,f,20,60.0064902133,Set,2017_12_14_1607,
"[2.6, 2.6]",3,0,0,0,2,,,,,29,0,29,0,right,0.966906641806,IOA,f,20,60.0064902133,Set,2017_12_14_1607,
"[2.6, 2.6]",3,0,0,0,2,,,,,30,0,30,0,right,0.433818415215,IOA,f,20,60.0064902133,Set,2017_12_14_1607,
"[2.6, 2.6]",3,0,0,0,2,,,,,31,0,31,0,left,0.950225356632,IOA,f,20,60.0064902133,Set,2017_12_14_1607,
"[2.6, 2.6]",3,0,0,0,2,,,,,32,0,32,0,down,1.16689929965,IOA,f,20,60.0064902133,Set,2017_12_14_1607,
"[2.6, 2.6]",3,0,0,0,2,,,,,33,0,33,0,right,0.45030983082,IOA,f,20,60.0064902133,Set,2017_12_14_1607,
"[2.6, 2.6]",3,0,0,0,2,,,,,34,0,34,0,right,0.716890260126,IOA,f,20,60.0064902133,Set,2017_12_14_1607,
"[2.6, 2.6]",3,0,0,0,2,,,,,35,0,35,0,right,0.716896970691,IOA,f,20,60.0064902133,Set,2017_12_14_1607,
"[2.6, 2.6]",3,0,0,0,2,,,,,36,0,36,0,right,0.900232817199,IOA,f,20,60.0064902133,Set,2017_12_14_1607,
"[2.6, 2.6]",3,0,0,0,2,,,,,37,0,37,0,right,1.80029234388,IOA,f,20,60.0064902133,Set,2017_12_14_1607,
"[2.6, 2.6]",3,0,0,0,2,,,,,38,0,38,0,right,2.53358283485,IOA,f,20,60.0064902133,Set,2017_12_14_1607,
"[2.6, 2.6]",3,0,0,0,2,,,,,39,0,39,0,left,0.56688816801,IOA,f,20,60.0064902133,Set,2017_12_14_1607,
"[2.6, 2.6]",3,0,0,0,2,,,,,40,0,40,0,right,0.666896141738,IOA,f,20,60.0064902133,Set,2017_12_14_1607,
"[2.6, 2.6]",3,0,0,0,2,,,,,41,0,41,0,right,0.950253777846,IOA,f,20,60.0064902133,Set,2017_12_14_1607,
"[2.6, 2.6]",3,0,0,0,2,,,,,42,0,42,0,right,0.450217856582,IOA,f,20,60.0064902133,Set,2017_12_14_1607,
"[2.6, 2.6]",3,0,0,0,2,,,,,43,0,43,0,right,0.566901983882,IOA,f,20,60.0064902133,Set,2017_12_14_1607,
"[2.6, 2.6]",3,0,0,0,2,,,,,44,0,44,0,right,1.23355615047,IOA,f,20,60.0064902133,Set,2017_12_14_1607,
"[2.6, 2.6]",3,0,0,0,2,,,,,45,0,45,0,right,0.933572097936,IOA,f,20,60.0064902133,Set,2017_12_14_1607,
"[2.6, 2.6]",3,0,0,0,2,,,,,46,0,46,0,right,0.516899181232,IOA,f,20,60.0064902133,Set,2017_12_14_1607,
"[2.6, 2.6]",3,0,0,0,2,,,,,47,0,47,0,left,1.95022535662,IOA,f,20,60.0064902133,Set,2017_12_14_1607,
"[2.6, 2.6]",3,0,0,0,2,,,,,48,0,48,0,right,0.566899220707,IOA,f,20,60.0064902133,Set,2017_12_14_1607,
"[2.6, 2.6]",3,0,0,0,2,,,,,49,0,49,0,left,1.0168987865,IOA,f,20,60.0064902133,Set,2017_12_14_1607,
"[2.6, 2.6]",3,0,0,0,2,,,,,50,0,50,0,right,0.933583545375,IOA,f,20,60.0064902133,Set,2017_12_14_1607,
"[2.6, 2.6]",3,0,0,0,2,,,,,51,0,51,0,right,0.616905181269,IOA,f,20,60.0064902133,Set,2017_12_14_1607,
"[2.6, 2.6]",3,0,0,0,2,,,,,52,0,52,0,right,0.18356992687,IOA,f,20,60.0064902133,Set,2017_12_14_1607,
"[2.6, 2.6]",3,0,0,0,2,,,,,53,0,53,0,left,0.450237988283,IOA,f,20,60.0064902133,Set,2017_12_14_1607,
"[2.6, 2.6]",3,0,0,0,2,,,,,54,0,54,0,left,1.50021947501,IOA,f,20,60.0064902133,Set,2017_12_14_1607,
"[2.6, 2.6]",3,0,0,0,2,,,,,55,0,55,0,left,0.400236764588,IOA,f,20,60.0064902133,Set,2017_12_14_1607,
"[2.6, 2.6]",3,0,0,0,2,,,,,56,0,56,0,right,0.550257014715,IOA,f,20,60.0064902133,Set,2017_12_14_1607,
"[2.6, 2.6]",3,0,0,0,2,,,,,57,0,57,0,right,0.516921286631,IOA,f,20,60.0064902133,Set,2017_12_14_1607,
"[2.6, 2.6]",3,0,0,0,2,,,,,58,0,58,0,left,0.283570795298,IOA,f,20,60.0064902133,Set,2017_12_14_1607,
"[2.6, 2.6]",3,0,0,0,2,,,,,59,0,59,0,left,0.433562229453,IOA,f,20,60.0064902133,Set,2017_12_14_1607,
"[2.6, 2.6]",3,0,0,0,2,,,,,60,0,60,0,right,0.383563374198,IOA,f,20,60.0064902133,Set,2017_12_14_1607,
"[2.6, 2.6]",3,0,0,0,2,,,,,61,0,61,0,right,0.900234790897,IOA,f,20,60.0064902133,Set,2017_12_14_1607,
"[2.6, 2.6]",3,0,0,0,2,,,,,62,0,62,0,left,0.366908931297,IOA,f,20,60.0064902133,Set,2017_12_14_1607,
"[2.6, 2.6]",3,0,0,0,2,,,,,63,0,63,0,right,0.533570203188,IOA,f,20,60.0064902133,Set,2017_12_14_1607,
"[2.6, 2.6]",3,0,0,0,2,,,,,64,0,64,0,right,0.666909168132,IOA,f,20,60.0064902133,Set,2017_12_14_1607,
"[2.6, 2.6]",3,0,0,0,2,,,,,65,0,65,0,right,2.8336395194,IOA,f,20,60.0064902133,Set,2017_12_14_1607,
"[2.6, 2.6]",3,0,0,0,2,,,,,66,0,66,0,right,0.350248172552,IOA,f,20,60.0064902133,Set,2017_12_14_1607,
"[2.6, 2.6]",3,0,0,0,2,,,,,67,0,67,0,right,0.350244619905,IOA,f,20,60.0064902133,Set,2017_12_14_1607,
"[2.6, 2.6]",3,0,0,0,2,,,,,68,0,68,0,right,0.416909760243,IOA,f,20,60.0064902133,Set,2017_12_14_1607,
"[2.6, 2.6]",3,0,0,0,2,,,,,69,0,69,0,right,0.250238619868,IOA,f,20,60.0064902133,Set,2017_12_14_1607,
"[2.6, 2.6]",3,0,0,0,2,,,,,70,0,70,0,right,0.383581532209,IOA,f,20,60.0064902133,Set,2017_12_14_1607,
"[2.6, 2.6]",3,0,0,0,2,,,,,71,0,71,0,down,1.03356546631,IOA,f,20,60.0064902133,Set,2017_12_14_1607,
"[2.6, 2.6]",3,0,0,0,2,,,,,72,0,72,0,left,0.316899023339,IOA,f,20,60.0064902133,Set,2017_12_14_1607,
"[2.6, 2.6]",3,0,0,0,2,,,,,73,0,73,0,left,1.33356965055,IOA,f,20,60.0064902133,Set,2017_12_14_1607,
"[2.6, 2.6]",3,0,0,0,2,,,,,74,0,74,0,right,0.300241817255,IOA,f,20,60.0064902133,Set,2017_12_14_1607,
"[2.6, 2.6]",3,0,0,0,2,,,,,75,0,75,0,right,0.433572887414,IOA,f,20,60.0064902133,Set,2017_12_14_1607,
"[2.6, 2.6]",3,0,0,0,2,,,,,76,0,76,0,right,0.300241422512,IOA,f,20,60.0064902133,Set,2017_12_14_1607,
"[2.6, 2.6]",3,0,0,0,2,,,,,77,0,77,0,right,0.433584729588,IOA,f,20,60.0064902133,Set,2017_12_14_1607,
"[2.6, 2.6]",3,0,0,0,2,,,,,78,0,78,0,left,0.566881852174,IOA,f,20,60.0064902133,Set,2017_12_14_1607,
"[2.6, 2.6]",3,0,0,0,2,,,,,79,0,79,0,left,1.06713172211,IOA,f,20,60.0064902133,Set,2017_12_14_1607,
"[2.6, 2.6]",3,0,0,0,2,,,,,80,0,80,0,right,0.816904944426,IOA,f,20,60.0064902133,Set,2017_12_14_1607,
"[2.6, 2.6]",3,0,0,0,2,,,,,81,0,81,0,left,0.600248369927,IOA,f,20,60.0064902133,Set,2017_12_14_1607,
"[2.6, 2.6]",3,0,0,0,2,,,,,82,0,82,0,left,0.466910194453,IOA,f,20,60.0064902133,Set,2017_12_14_1607,
"[2.6, 2.6]",3,0,0,0,2,,,,,83,0,83,0,left,0.400237159323,IOA,f,20,60.0064902133,Set,2017_12_14_1607,
"[2.6, 2.6]",3,0,0,0,2,,,,,84,0,84,0,right,1.03356151893,IOA,f,20,60.0064902133,Set,2017_12_14_1607,
"[2.6, 2.6]",3,0,0,0,2,,,,,85,0,85,0,left,0.350234751422,IOA,f,20,60.0064902133,Set,2017_12_14_1607,
"[2.6, 2.6]",3,0,0,0,2,,,,,86,0,86,0,left,0.483550426754,IOA,f,20,60.0064902133,Set,2017_12_14_1607,
"[2.6, 2.6]",3,0,0,0,2,,,,,87,0,87,0,right,0.433567361062,IOA,f,20,60.0064902133,Set,2017_12_14_1607,
"[2.6, 2.6]",3,0,0,0,2,,,,,88,0,88,0,left,0.400209922322,IOA,f,20,60.0064902133,Set,2017_12_14_1607,
"[2.6, 2.6]",3,0,0,0,2,,,,,89,0,89,0,left,0.566917773445,IOA,f,20,60.0064902133,Set,2017_12_14_1607,
"[2.6, 2.6]",3,0,0,0,2,,,,,90,0,90,0,left,1.4834059522,IOA,f,20,60.0064902133,Set,2017_12_14_1607,
"[2.6, 2.6]",3,0,0,0,2,,,,,91,0,91,0,right,0.450238383019,IOA,f,20,60.0064902133,Set,2017_12_14_1607,
"[2.6, 2.6]",3,0,0,0,2,,,,,92,0,92,0,right,0.700235817218,IOA,f,20,60.0064902133,Set,2017_12_14_1607,
"[2.6, 2.6]",3,0,0,0,2,,,,,93,0,93,0,right,0.550226619795,IOA,f,20,60.0064902133,Set,2017_12_14_1607,
"[2.6, 2.6]",3,0,0,0,2,,,,,94,0,94,0,right,0.46688808906,IOA,f,20,60.0064902133,Set,2017_12_14_1607,
"[2.6, 2.6]",3,0,0,0,2,,,,,95,0,95,0,right,0.400235975118,IOA,f,20,60.0064902133,Set,2017_12_14_1607,
"[2.6, 2.6]",3,0,0,0,2,,,,,96,0,96,0,right,0.600231790871,IOA,f,20,60.0064902133,Set,2017_12_14_1607,
"[2.6, 2.6]",3,0,0,0,2,,,,,97,0,97,0,right,1.55022661979,IOA,f,20,60.0064902133,Set,2017_12_14_1607,
"[2.6, 2.6]",3,0,0,0,2,,,,,98,0,98,0,right,0.483573716367,IOA,f,20,60.0064902133,Set,2017_12_14_1607,
"[2.6, 2.6]",3,0,0,0,2,,,,,99,0,99,0,right,0.483407136409,IOA,f,20,60.0064902133,Set,2017_12_14_1607,
"[2.6, 2.6]",2,0,1,1,1,,,,,0,0,0,0,right,0.0502333303593,IOA,f,20,60.0064902133,Set,2017_12_14_1607,
"[2.6, 2.6]",2,0,1,1,1,,,,,1,0,1,0,right,1.00006552671,IOA,f,20,60.0064902133,Set,2017_12_14_1607,
"[2.6, 2.6]",2,0,1,1,1,,,,,2,0,2,0,right,0.450254962067,IOA,f,20,60.0064902133,Set,2017_12_14_1607,
"[2.6, 2.6]",2,0,1,1,1,,,,,3,0,3,0,right,0.233577466388,IOA,f,20,60.0064902133,Set,2017_12_14_1607,
"[2.6, 2.6]",2,0,1,1,1,,,,,4,0,4,0,right,0.100240869877,IOA,f,20,60.0064902133,Set,2017_12_14_1607,
"[2.6, 2.6]",2,0,1,1,1,,,,,5,0,5,0,left,0.433604861297,IOA,f,20,60.0064902133,Set,2017_12_14_1607,
"[2.6, 2.6]",2,0,1,1,1,,,,,6,0,6,0,left,0.733513913372,IOA,f,20,60.0064902133,Set,2017_12_14_1607,
"[2.6, 2.6]",2,0,1,1,1,,,,,7,0,7,0,left,0.516890891704,IOA,f,20,60.0064902133,Set,2017_12_14_1607,
"[2.6, 2.6]",2,0,1,1,1,,,,,8,0,8,0,right,2.83355701889,IOA,f,20,60.0064902133,Set,2017_12_14_1607,
"[2.6, 2.6]",2,0,1,1,1,,,,,9,0,9,0,left,0.366895904903,IOA,f,20,60.0064902133,Set,2017_12_14_1607,
"[2.6, 2.6]",2,0,1,1,1,,,,,10,0,10,0,right,0.417037655759,IOA,f,20,60.0064902133,Set,2017_12_14_1607,
"[2.6, 2.6]",2,0,1,1,1,,,,,11,0,11,0,right,0.250233093517,IOA,f,20,60.0064902133,Set,2017_12_14_1607,
"[2.6, 2.6]",2,0,1,1,1,,,,,12,0,12,0,right,0.600224685571,IOA,f,20,60.0064902133,Set,2017_12_14_1607,
"[2.6, 2.6]",2,0,1,1,1,,,,,13,0,13,0,right,0.350280935912,IOA,f,20,60.0064902133,Set,2017_12_14_1607,
"[2.6, 2.6]",2,0,1,1,1,,,,,14,0,14,0,right,0.200204238077,IOA,f,20,60.0064902133,Set,2017_12_14_1607,
"[2.6, 2.6]",2,0,1,1,1,,,,,15,0,15,0,down,1.9835579268,IOA,f,20,60.0064902133,Set,2017_12_14_1607,
"[2.6, 2.6]",2,0,1,1,1,,,,,16,0,16,0,right,0.266903325995,IOA,f,20,60.0064902133,Set,2017_12_14_1607,
"[2.6, 2.6]",2,0,1,1,1,,,,,17,0,17,0,right,0.233566413692,IOA,f,20,60.0064902133,Set,2017_12_14_1607,
"[2.6, 2.6]",2,0,1,1,1,,,,,18,0,18,0,right,0.166905615479,IOA,f,20,60.0064902133,Set,2017_12_14_1607,
"[2.6, 2.6]",2,0,1,1,1,,,,,19,0,19,0,right,0.116889786441,IOA,f,20,60.0064902133,Set,2017_12_14_1607,
"[2.6, 2.6]",2,0,1,1,1,,,,,20,0,20,0,right,0.133557255736,IOA,f,20,60.0064902133,Set,2017_12_14_1607,
"[2.6, 2.6]",2,0,1,1,1,,,,,21,0,21,0,right,0.250242961993,IOA,f,20,60.0064902133,Set,2017_12_14_1607,
"[2.6, 2.6]",2,0,1,1,1,,,,,22,0,22,0,right,0.216920260304,IOA,f,20,60.0064902133,Set,2017_12_14_1607,
"[2.6, 2.6]",2,0,1,1,1,,,,,23,0,23,0,right,0.43356815054,IOA,f,20,60.0064902133,Set,2017_12_14_1607,
"[2.6, 2.6]",2,0,1,1,1,,,,,24,0,24,0,right,0.21690328652,IOA,f,20,60.0064902133,Set,2017_12_14_1607,
"[2.6, 2.6]",2,0,1,1,1,,,,,25,0,25,0,right,0.600071132008,IOA,f,20,60.0064902133,Set,2017_12_14_1607,
"[2.6, 2.6]",2,0,1,1,1,,,,,26,0,26,0,right,0.20007673731,IOA,f,20,60.0064902133,Set,2017_12_14_1607,
"[2.6, 2.6]",2,0,1,1,1,,,,,27,0,27,0,right,0.283573558474,IOA,f,20,60.0064902133,Set,2017_12_14_1607,
"[2.6, 2.6]",2,0,1,1,1,,,,,28,0,28,0,right,0.366910510253,IOA,f,20,60.0064902133,Set,2017_12_14_1607,
"[2.6, 2.6]",2,0,1,1,1,,,,,29,0,29,0,right,0.400239133029,IOA,f,20,60.0064902133,Set,2017_12_14_1607,
"[2.6, 2.6]",2,0,1,1,1,,,,,30,0,30,0,right,0.383564558411,IOA,f,20,60.0064902133,Set,2017_12_14_1607,
"[2.6, 2.6]",2,0,1,1,1,,,,,31,0,31,0,right,0.550234119844,IOA,f,20,60.0064902133,Set,2017_12_14_1607,
"[2.6, 2.6]",2,0,1,1,1,,,,,32,0,32,0,right,0.333572018993,IOA,f,20,60.0064902133,Set,2017_12_14_1607,
"[2.6, 2.6]",2,0,1,1,1,,,,,33,0,33,0,right,0.483559900495,IOA,f,20,60.0064902133,Set,2017_12_14_1607,
"[2.6, 2.6]",2,0,1,1,1,,,,,34,0,34,0,right,0.700230685608,IOA,f,20,60.0064902133,Set,2017_12_14_1607,
"[2.6, 2.6]",2,0,1,1,1,,,,,35,0,35,0,down,0.550250304143,IOA,f,20,60.0064902133,Set,2017_12_14_1607,
"[2.6, 2.6]",2,0,1,1,1,,,,,36,0,36,0,right,0.650249593615,IOA,f,20,60.0064902133,Set,2017_12_14_1607,
"[2.6, 2.6]",2,0,1,1,1,,,,,37,0,37,0,right,0.950263646329,IOA,f,20,60.0064902133,Set,2017_12_14_1607,
"[2.6, 2.6]",2,0,1,1,1,,,,,38,0,38,0,right,0.300255238384,IOA,f,20,60.0064902133,Set,2017_12_14_1607,
"[2.6, 2.6]",2,0,1,1,1,,,,,39,0,39,0,right,0.283585005905,IOA,f,20,60.0064902133,Set,2017_12_14_1607,
"[2.6, 2.6]",2,0,1,1,1,,,,,40,0,40,0,right,0.400445581647,IOA,f,20,60.0064902133,Set,2017_12_14_1607,
"[2.6, 2.6]",2,0,1,1,1,,,,,41,0,41,0,right,0.133579755879,IOA,f,20,60.0064902133,Set,2017_12_14_1607,
"[2.6, 2.6]",2,0,1,1,1,,,,,42,0,42,0,right,0.416932655113,IOA,f,20,60.0064902133,Set,2017_12_14_1607,
"[2.6, 2.6]",2,0,1,1,1,,,,,43,0,43,0,right,0.233569966345,IOA,f,20,60.0064902133,Set,2017_12_14_1607,
"[2.6, 2.6]",2,0,1,1,1,,,,,44,0,44,0,right,0.166921405049,IOA,f,20,60.0064902133,Set,2017_12_14_1607,
"[2.6, 2.6]",2,0,1,1,1,,,,,45,0,45,0,right,0.133575019005,IOA,f,20,60.0064902133,Set,2017_12_14_1607,
"[2.6, 2.6]",2,0,1,1,1,,,,,46,0,46,0,right,0.200242922525,IOA,f,20,60.0064902133,Set,2017_12_14_1607,
"[2.6, 2.6]",2,0,1,1,1,,,,,47,0,47,0,right,0.33358386116,IOA,f,20,60.0064902133,Set,2017_12_14_1607,
"[2.6, 2.6]",2,0,1,1,1,,,,,48,0,48,0,right,0.61690833918,IOA,f,20,60.0064902133,Set,2017_12_14_1607,
"[2.6, 2.6]",2,0,1,1,1,,,,,49,0,49,0,right,0.433558282064,IOA,f,20,60.0064902133,Set,2017_12_14_1607,
"[2.6, 2.6]",2,0,1,1,1,,,,,50,0,50,0,right,0.983555163621,IOA,f,20,60.0064902133,Set,2017_12_14_1607,
"[2.6, 2.6]",2,0,1,1,1,,,,,51,0,51,0,right,0.316894286465,IOA,f,20,60.0064902133,Set,2017_12_14_1607,
"[2.6, 2.6]",2,0,1,1,1,,,,,52,0,52,0,right,0.133546597783,IOA,f,20,60.0064902133,Set,2017_12_14_1607,
"[2.6, 2.6]",2,0,1,1,1,,,,,53,0,53,0,down,0.450227330322,IOA,f,20,60.0064902133,Set,2017_12_14_1607,
"[2.6, 2.6]",2,0,1,1,1,,,,,54,0,54,0,down,0.400220185547,IOA,f,20,60.0064902133,Set,2017_12_14_1607,
"[2.6, 2.6]",2,0,1,1,1,,,,,55,0,55,0,right,0.616890970661,IOA,f,20,60.0064902133,Set,2017_12_14_1607,
"[2.6, 2.6]",2,0,1,1,1,,,,,56,0,56,0,right,0.883566532117,IOA,f,20,60.0064902133,Set,2017_12_14_1607,
"[2.6, 2.6]",2,0,1,1,1,,,,,57,0,57,0,down,0.900273475338,IOA,f,20,60.0064902133,Set,2017_12_14_1607,
"[2.6, 2.6]",2,0,1,1,1,,,,,58,0,58,0,right,0.0835639268334,IOA,f,20,60.0064902133,Set,2017_12_14_1607,
"[2.6, 2.6]",2,0,1,1,1,,,,,59,0,59,0,down,0.766899378606,IOA,f,20,60.0064902133,Set,2017_12_14_1607,
"[2.6, 2.6]",2,0,1,1,1,,,,,60,0,60,0,down,1.20031081767,IOA,f,20,60.0064902133,Set,2017_12_14_1607,
"[2.8, 2.8]",2,0,2,2,13,,,,,0,0,0,0,right,0.3835614005,IOA,f,20,60.0064902133,Set,2017_12_14_1607,
"[2.8, 2.8]",2,0,2,2,13,,,,,1,0,1,0,right,0.650243672528,IOA,f,20,60.0064902133,Set,2017_12_14_1607,
"[2.8, 2.8]",2,0,2,2,13,,,,,2,0,2,0,right,0.366917220817,IOA,f,20,60.0064902133,Set,2017_12_14_1607,
"[2.8, 2.8]",2,0,2,2,13,,,,,3,0,3,0,right,0.250238619868,IOA,f,20,60.0064902133,Set,2017_12_14_1607,
"[2.8, 2.8]",2,0,2,2,13,,,,,4,0,4,0,right,0.383562189978,IOA,f,20,60.0064902133,Set,2017_12_14_1607,
"[2.8, 2.8]",2,0,2,2,13,,,,,5,0,5,0,right,0.483580426939,IOA,f,20,60.0064902133,Set,2017_12_14_1607,
"[2.8, 2.8]",2,0,2,2,13,,,,,6,0,6,0,right,0.383572453204,IOA,f,20,60.0064902133,Set,2017_12_14_1607,
"[2.8, 2.8]",2,0,2,2,13,,,,,7,0,7,0,right,1.3835874533,IOA,f,20,60.0064902133,Set,2017_12_14_1607,
"[2.8, 2.8]",2,0,2,2,13,,,,,8,0,8,0,right,0.300242606732,IOA,f,20,60.0064902133,Set,2017_12_14_1607,
"[2.8, 2.8]",2,0,2,2,13,,,,,9,0,9,0,right,1.23357115056,IOA,f,20,60.0064902133,Set,2017_12_14_1607,
"[2.8, 2.8]",2,0,2,2,13,,,,,10,0,10,0,right,0.366902615468,IOA,f,20,60.0064902133,Set,2017_12_14_1607,
"[2.8, 2.8]",2,0,2,2,13,,,,,11,0,11,0,right,0.266915562912,IOA,f,20,60.0064902133,Set,2017_12_14_1607,
"[2.8, 2.8]",2,0,2,2,13,,,,,12,0,12,0,right,1.35024185673,IOA,f,20,60.0064902133,Set,2017_12_14_1607,
"[2.8, 2.8]",2,0,2,2,13,,,,,13,0,13,0,right,0.90027268586,IOA,f,20,60.0064902133,Set,2017_12_14_1607,
"[2.8, 2.8]",2,0,2,2,13,,,,,14,0,14,0,right,0.33356096629,IOA,f,20,60.0064902133,Set,2017_12_14_1607,
"[2.8, 2.8]",2,0,2,2,13,,,,,15,0,15,0,right,0.333576361118,IOA,f,20,60.0064902133,Set,2017_12_14_1607,
"[2.8, 2.8]",2,0,2,2,13,,,,,16,0,16,0,right,0.583657874769,IOA,f,20,60.0064902133,Set,2017_12_14_1607,
"[2.8, 2.8]",2,0,2,2,13,,,,,17,0,17,0,down,1.08357063741,IOA,f,20,60.0064902133,Set,2017_12_14_1607,
"[2.8, 2.8]",2,0,2,2,13,,,,,18,0,18,0,down,0.450245883068,IOA,f,20,60.0064902133,Set,2017_12_14_1607,
"[3.0, 3.0]",2,0,3,3,25,,,,,0,0,0,0,left,0.516902733885,IOA,f,20,60.0064902133,Set,2017_12_14_1607,
"[3.0, 3.0]",2,0,3,3,25,,,,,1,0,1,0,right,0.583565900532,IOA,f,20,60.0064902133,Set,2017_12_14_1607,
"[3.0, 3.0]",2,0,3,3,25,,,,,2,0,2,0,right,0.266905694429,IOA,f,20,60.0064902133,Set,2017_12_14_1607,
"[3.0, 3.0]",2,0,3,3,25,,,,,3,0,3,0,right,0.350228830335,IOA,f,20,60.0064902133,Set,2017_12_14_1607,
"[3.0, 3.0]",2,0,3,3,25,,,,,4,0,4,0,right,3.01688970749,IOA,f,20,60.0064902133,Set,2017_12_14_1607,
"[3.0, 3.0]",2,0,3,3,25,,,,,5,0,5,0,right,0.233585755916,IOA,f,20,60.0064902133,Set,2017_12_14_1607,
"[3.0, 3.0]",2,0,3,3,25,,,,,6,0,6,0,right,0.5168948391,IOA,f,20,60.0064902133,Set,2017_12_14_1607,
"[3.0, 3.0]",2,0,3,3,25,,,,,7,0,7,0,right,0.666885089042,IOA,f,20,60.0064902133,Set,2017_12_14_1607,
"[3.0, 3.0]",2,0,3,3,25,,,,,8,0,8,0,right,0.733561282083,IOA,f,20,60.0064902133,Set,2017_12_14_1607,
"[3.0, 3.0]",2,0,3,3,25,,,,,9,0,9,0,right,0.833634387789,IOA,f,20,60.0064902133,Set,2017_12_14_1607,
"[3.0, 3.0]",2,0,3,3,25,,,,,10,0,10,0,right,1.76687529951,IOA,f,20,60.0064902133,Set,2017_12_14_1607,
"[3.0, 3.0]",2,0,3,3,25,,,,,11,0,11,0,right,0.783568426858,IOA,f,20,60.0064902133,Set,2017_12_14_1607,
"[3.0, 3.0]",2,0,3,3,25,,,,,12,0,12,0,right,2.23355338729,IOA,f,20,60.0064902133,Set,2017_12_14_1607,
"[3.0, 3.0]",2,0,3,3,25,,,,,13,0,13,0,down,0.86688564167,IOA,f,20,60.0064902133,Set,2017_12_14_1607,
"[3.0, 3.0]",2,0,3,3,25,,,,,14,0,14,0,right,0.933548808323,IOA,f,20,60.0064902133,Set,2017_12_14_1607,
"[3.0, 3.0]",2,0,3,3,25,,,,,15,0,15,0,down,0.816891918032,IOA,f,20,60.0064902133,Set,2017_12_14_1607,
"[3.0, 3.0]",2,0,3,3,25,,,,,16,0,16,0,right,0.416897128584,IOA,f,20,60.0064902133,Set,2017_12_14_1607,
"[3.0, 3.0]",2,0,3,3,25,,,,,17,0,17,0,down,2.16687679951,IOA,f,20,60.0064902133,Set,2017_12_14_1607,
"[3.0, 3.0]",2,0,3,3,25,,,,,18,0,18,0,right,0.100063237223,IOA,f,20,60.0064902133,Set,2017_12_14_1607,
"[3.0, 3.0]",2,0,3,3,25,,,,,19,0,19,0,right,0.76691003656,IOA,f,20,60.0064902133,Set,2017_12_14_1607,
"[3.0, 3.0]",2,0,3,3,25,,,,,20,0,20,0,right,0.633571861094,IOA,f,20,60.0064902133,Set,2017_12_14_1607,
"[3.0, 3.0]",2,0,3,3,25,,,,,21,0,21,0,right,1.31690297074,IOA,f,20,60.0064902133,Set,2017_12_14_1607,
"[3.0, 3.0]",2,0,3,3,25,,,,,22,0,22,0,right,0.666964826363,IOA,f,20,60.0064902133,Set,2017_12_14_1607,
"[3.0, 3.0]",2,0,3,3,25,,,,,23,0,23,0,right,0.616912286569,IOA,f,20,60.0064902133,Set,2017_12_14_1607,
"[3.0, 3.0]",2,0,3,3,25,,,,,24,0,24,0,right,0.816946392042,IOA,f,20,60.0064902133,Set,2017_12_14_1607,
"[3.0, 3.0]",2,0,3,3,25,,,,,25,0,25,0,right,0.516946944685,IOA,f,20,60.0064902133,Set,2017_12_14_1607,
"[3.0, 3.0]",2,0,3,3,25,,,,,26,0,26,0,right,0.416929102466,IOA,f,20,60.0064902133,Set,2017_12_14_1607,
"[3.0, 3.0]",2,0,3,3,25,,,,,27,0,27,0,right,0.350250935728,IOA,f,20,60.0064902133,Set,2017_12_14_1607,
"[3.0, 3.0]",2,0,3,3,25,,,,,28,0,28,0,right,0.366920378729,IOA,f,20,60.0064902133,Set,2017_12_14_1607,
"[3.0, 3.0]",2,0,3,3,25,,,,,29,0,29,0,right,0.433571308458,IOA,f,20,60.0064902133,Set,2017_12_14_1607,
"[3.0, 3.0]",2,0,3,3,25,,,,,30,0,30,0,right,0.966910983931,IOA,f,20,60.0064902133,Set,2017_12_14_1607,
"[3.0, 3.0]",2,0,3,3,25,,,,,31,0,31,0,right,0.483401610058,IOA,f,20,60.0064902133,Set,2017_12_14_1607,
"[3.0, 3.0]",2,0,3,3,25,,,,,32,0,32,0,right,0.716894207515,IOA,f,20,60.0064902133,Set,2017_12_14_1607,
"[3.0, 3.0]",2,0,3,3,25,,,,,33,0,33,0,down,0.850226856637,IOA,f,20,60.0064902133,Set,2017_12_14_1607,
"[3.0, 3.0]",2,0,3,3,25,,,,,34,0,34,0,right,0.550242409365,IOA,f,20,60.0064902133,Set,2017_12_14_1607,
"[3.0, 3.0]",2,0,3,3,25,,,,,35,0,35,0,right,0.350214619721,IOA,f,20,60.0064902133,Set,2017_12_14_1607,
"[3.0, 3.0]",2,0,3,3,25,,,,,36,0,36,0,right,0.400258475245,IOA,f,20,60.0064902133,Set,2017_12_14_1607,
"[3.0, 3.0]",2,0,3,3,25,,,,,37,0,37,0,down,0.750234277737,IOA,f,20,60.0064902133,Set,2017_12_14_1607,
"[3.0, 3.0]",2,0,3,3,25,,,,,38,0,38,0,down,0.566907904969,IOA,f,20,60.0064902133,Set,2017_12_14_1607,
"[3.0, 3.0]",2,0,3,3,25,,,,,39,0,39,0,right,0.43363525621,IOA,f,20,60.0064902133,Set,2017_12_14_1607,
"[3.0, 3.0]",2,0,3,3,25,,,,,40,0,40,0,right,0.383554689935,IOA,f,20,60.0064902133,Set,2017_12_14_1607,
"[3.0, 3.0]",2,0,3,3,25,,,,,41,0,41,0,right,0.366889194331,IOA,f,20,60.0064902133,Set,2017_12_14_1607,
"[3.0, 3.0]",2,0,3,3,25,,,,,42,0,42,0,down,0.633578176916,IOA,f,20,60.0064902133,Set,2017_12_14_1607,
"[3.0, 3.0]",2,0,3,3,25,,,,,43,0,43,0,left,0.883565742639,IOA,f,20,60.0064902133,Set,2017_12_14_1607,
"[3.0, 3.0]",2,0,3,3,25,,,,,44,0,44,0,right,0.500243948845,IOA,f,20,60.0064902133,Set,2017_12_14_1607,
"[3.0, 3.0]",2,0,3,3,25,,,,,45,0,45,0,right,0.683556110998,IOA,f,20,60.0064902133,Set,2017_12_14_1607,
"[3.0, 3.0]",2,0,3,3,25,,,,,46,0,46,0,down,0.666890220651,IOA,f,20,60.0064902133,Set,2017_12_14_1607,
"[3.0, 3.0]",2,0,3,3,25,,,,,47,0,47,0,down,0.583554453093,IOA,f,20,60.0064902133,Set,2017_12_14_1607,
"[3.0, 3.0]",5,0,4,4,28,,,,,0,0,0,0,down,0.983568190015,IOA,f,20,60.0064902133,Set,2017_12_14_1607,
"[3.0, 3.0]",5,0,4,4,28,,,,,1,0,1,0,down,0.583577742706,IOA,f,20,60.0064902133,Set,2017_12_14_1607,
"[3.0, 3.0]",5,0,4,4,28,,,,,2,0,2,0,right,0.366902220725,IOA,f,20,60.0064902133,Set,2017_12_14_1607,
"[3.0, 3.0]",5,0,4,4,28,,,,,3,0,3,0,right,0.350316857184,IOA,f,20,60.0064902133,Set,2017_12_14_1607,
"[3.0, 3.0]",5,0,4,4,28,,,,,4,0,4,0,right,1.43355630837,IOA,f,20,60.0064902133,Set,2017_12_14_1607,
"[3.0, 3.0]",5,0,4,4,28,,,,,5,0,5,0,down,0.316925865605,IOA,f,20,60.0064902133,Set,2017_12_14_1607,
"[3.0, 3.0]",5,0,4,4,28,,,,,6,0,6,0,right,1.58356353209,IOA,f,20,60.0064902133,Set,2017_12_14_1607,
"[3.0, 3.0]",5,0,4,4,28,,,,,7,0,7,0,right,0.316764417257,IOA,f,20,60.0064902133,Set,2017_12_14_1607,
"[3.0, 3.0]",5,0,4,4,28,,,,,8,0,8,0,right,0.600239290921,IOA,f,20,60.0064902133,Set,2017_12_14_1607,
"[3.0, 3.0]",5,0,4,4,28,,,,,9,0,9,0,right,0.316895075943,IOA,f,20,60.0064902133,Set,2017_12_14_1607,
"[3.0, 3.0]",5,0,4,4,28,,,,,10,0,10,0,down,0.650231435611,IOA,f,20,60.0064902133,Set,2017_12_14_1607,
"[3.0, 3.0]",5,0,4,4,28,,,,,11,0,11,0,right,0.71690328652,IOA,f,20,60.0064902133,Set,2017_12_14_1607,
"[3.0, 3.0]",5,0,4,4,28,,,,,12,0,12,0,right,1.33355780838,IOA,f,20,60.0064902133,Set,2017_12_14_1607,
"[3.0, 3.0]",5,0,4,4,28,,,,,13,0,13,0,right,0.500223422401,IOA,f,20,60.0064902133,Set,2017_12_14_1607,
"[3.0, 3.0]",5,0,4,4,28,,,,,14,0,14,0,right,0.516889707491,IOA,f,20,60.0064902133,Set,2017_12_14_1607,
"[3.0, 3.0]",5,0,4,4,28,,,,,15,0,15,0,right,0.583596295452,IOA,f,20,60.0064902133,Set,2017_12_14_1607,
"[3.0, 3.0]",5,0,4,4,28,,,,,16,0,16,0,down,0.783567242644,IOA,f,20,60.0064902133,Set,2017_12_14_1607,
"[3.0, 3.0]",5,0,4,4,28,,,,,17,0,17,0,right,0.383604821815,IOA,f,20,60.0064902133,Set,2017_12_14_1607,
"[3.0, 3.0]",5,0,4,4,28,,,,,18,0,18,0,right,0.533567440012,IOA,f,20,60.0064902133,Set,2017_12_14_1607,
"[3.0, 3.0]",5,0,4,4,28,,,,,19,0,19,0,right,1.00022934349,IOA,f,20,60.0064902133,Set,2017_12_14_1607,
"[3.0, 3.0]",5,0,4,4,28,,,,,20,0,20,0,right,2.18354347934,IOA,f,20,60.0064902133,Set,2017_12_14_1607,
"[3.0, 3.0]",5,0,4,4,28,,,,,21,0,21,0,right,0.35024185673,IOA,f,20,60.0064902133,Set,2017_12_14_1607,
"[3.0, 3.0]",5,0,4,4,28,,,,,22,0,22,0,right,0.450254172589,IOA,f,20,60.0064902133,Set,2017_12_14_1607,
"[3.0, 3.0]",5,0,4,4,28,,,,,23,0,23,0,right,1.21690565495,IOA,f,20,60.0064902133,Set,2017_12_14_1607,
"[3.0, 3.0]",5,0,4,4,28,,,,,24,0,24,0,right,1.6335919928,IOA,f,20,60.0064902133,Set,2017_12_14_1607,
"[3.0, 3.0]",5,0,4,4,28,,,,,25,0,25,0,right,0.816902970728,IOA,f,20,60.0064902133,Set,2017_12_14_1607,
"[3.0, 3.0]",5,0,4,4,28,,,,,26,0,26,0,down,0.633558439957,IOA,f,20,60.0064902133,Set,2017_12_14_1607,
"[3.0, 3.0]",5,0,4,4,28,,,,,27,0,27,0,right,0.566910668145,IOA,f,20,60.0064902133,Set,2017_12_14_1607,
"[3.0, 3.0]",5,0,4,4,28,,,,,28,0,28,0,right,0.483575295322,IOA,f,20,60.0064902133,Set,2017_12_14_1607,
"[3.0, 3.0]",5,0,4,4,28,,,,,29,0,29,0,down,0.583558005746,IOA,f,20,60.0064902133,Set,2017_12_14_1607,
"[3.0, 3.0]",5,0,4,4,28,,,,,30,0,30,0,down,0.550247935709,IOA,f,20,60.0064902133,Set,2017_12_14_1607,
"[2.6, 2.6]",4,0,5,5,3,,,,,0,0,0,0,down,0.683652032632,IOA,f,20,60.0064902133,Set,2017_12_14_1607,
"[2.6, 2.6]",4,0,5,5,3,,,,,1,0,1,0,right,1.06690632601,IOA,f,20,60.0064902133,Set,2017_12_14_1607,
"[2.6, 2.6]",4,0,5,5,3,,,,,2,0,2,0,right,0.350241067252,IOA,f,20,60.0064902133,Set,2017_12_14_1607,
"[2.6, 2.6]",4,0,5,5,3,,,,,3,0,3,0,right,0.350194882762,IOA,f,20,60.0064902133,Set,2017_12_14_1607,
"[2.6, 2.6]",4,0,5,5,3,,,,,4,0,4,0,right,0.700218843427,IOA,f,20,60.0064902133,Set,2017_12_14_1607,
"[2.6, 2.6]",4,0,5,5,3,,,,,5,0,5,0,right,0.45024272515,IOA,f,20,60.0064902133,Set,2017_12_14_1607,
"[2.6, 2.6]",4,0,5,5,3,,,,,6,0,6,0,down,0.633567518962,IOA,f,20,60.0064902133,Set,2017_12_14_1607,
"[2.6, 2.6]",4,0,5,5,3,,,,,7,0,7,0,down,0.40026637003,IOA,f,20,60.0064902133,Set,2017_12_14_1607,
"[2.6, 2.6]",4,0,5,5,3,,,,,8,0,8,0,right,0.433631308821,IOA,f,20,60.0064902133,Set,2017_12_14_1607,
"[2.6, 2.6]",4,0,5,5,3,,,,,9,0,9,0,right,0.616900444395,IOA,f,20,60.0064902133,Set,2017_12_14_1607,
"[2.6, 2.6]",4,0,5,5,3,,,,,10,0,10,0,right,0.416898707546,IOA,f,20,60.0064902133,Set,2017_12_14_1607,
"[2.6, 2.6]",4,0,5,5,3,,,,,11,0,11,0,right,0.450229698756,IOA,f,20,60.0064902133,Set,2017_12_14_1607,
"[2.6, 2.6]",4,0,5,5,3,,,,,12,0,12,0,right,0.400217027636,IOA,f,20,60.0064902133,Set,2017_12_14_1607,
"[2.6, 2.6]",4,0,5,5,3,,,,,13,0,13,0,right,0.650210514432,IOA,f,20,60.0064902133,Set,2017_12_14_1607,
"[2.6, 2.6]",4,0,5,5,3,,,,,14,0,14,0,down,0.866929457727,IOA,f,20,60.0064902133,Set,2017_12_14_1607,
"[2.6, 2.6]",4,0,5,5,3,,,,,15,0,15,0,right,0.983562268928,IOA,f,20,60.0064902133,Set,2017_12_14_1607,
"[2.6, 2.6]",4,0,5,5,3,,,,,16,0,16,0,right,1.71692341821,IOA,f,20,60.0064902133,Set,2017_12_14_1607,
"[2.6, 2.6]",4,0,5,5,3,,,,,17,0,17,0,right,0.383395610028,IOA,f,20,60.0064902133,Set,2017_12_14_1607,
"[2.6, 2.6]",4,0,5,5,3,,,,,18,0,18,0,right,0.683618479794,IOA,f,20,60.0064902133,Set,2017_12_14_1607,
"[2.6, 2.6]",4,0,5,5,3,,,,,19,0,19,0,down,0.400220975025,IOA,f,20,60.0064902133,Set,2017_12_14_1607,
"[2.6, 2.6]",4,0,5,5,3,,,,,20,0,20,0,right,0.416891996974,IOA,f,20,60.0064902133,Set,2017_12_14_1607,
"[2.6, 2.6]",4,0,5,5,3,,,,,21,0,21,0,right,0.483574111102,IOA,f,20,60.0064902133,Set,2017_12_14_1607,
"[2.6, 2.6]",4,0,5,5,3,,,,,22,0,22,0,right,0.583567479487,IOA,f,20,60.0064902133,Set,2017_12_14_1607,
"[2.6, 2.6]",4,0,5,5,3,,,,,23,0,23,0,right,0.766882404809,IOA,f,20,60.0064902133,Set,2017_12_14_1607,
"[2.6, 2.6]",4,0,5,5,3,,,,,24,0,24,0,right,0.650233804045,IOA,f,20,60.0064902133,Set,2017_12_14_1607,
"[2.6, 2.6]",4,0,5,5,3,,,,,25,0,25,0,right,0.483573716367,IOA,f,20,60.0064902133,Set,2017_12_14_1607,
"[2.6, 2.6]",4,0,5,5,3,,,,,26,0,26,0,right,0.983408715365,IOA,f,20,60.0064902133,Set,2017_12_14_1607,
"[2.6, 2.6]",4,0,5,5,3,,,,,27,0,27,0,down,0.400240711984,IOA,f,20,60.0064902133,Set,2017_12_14_1607,
"[2.6, 2.6]",4,0,5,5,3,,,,,28,0,28,0,right,1.06688422061,IOA,f,20,60.0064902133,Set,2017_12_14_1607,
"[2.6, 2.6]",4,0,5,5,3,,,,,29,0,29,0,right,0.866926694558,IOA,f,20,60.0064902133,Set,2017_12_14_1607,
"[2.6, 2.6]",4,0,5,5,3,,,,,30,0,30,0,down,0.516892075924,IOA,f,20,60.0064902133,Set,2017_12_14_1607,
"[2.6, 2.6]",4,0,5,5,3,,,,,31,0,31,0,right,0.400240711984,IOA,f,20,60.0064902133,Set,2017_12_14_1607,
"[2.6, 2.6]",4,0,5,5,3,,,,,32,0,32,0,right,0.416905812854,IOA,f,20,60.0064902133,Set,2017_12_14_1607,
"[2.6, 2.6]",4,0,5,5,3,,,,,33,0,33,0,down,0.40025808051,IOA,f,20,60.0064902133,Set,2017_12_14_1607,
"[2.6, 2.6]",4,0,5,5,3,,,,,34,0,34,0,right,0.33355465046,IOA,f,20,60.0064902133,Set,2017_12_14_1607,
"[2.6, 2.6]",4,0,5,5,3,,,,,35,0,35,0,down,0.433563413673,IOA,f,20,60.0064902133,Set,2017_12_14_1607,
"[2.6, 2.6]",4,0,5,5,3,,,,,36,0,36,0,right,0.500226185584,IOA,f,20,60.0064902133,Set,2017_12_14_1607,
"[2.6, 2.6]",4,0,5,5,3,,,,,37,0,37,0,down,0.500245133058,IOA,f,20,60.0064902133,Set,2017_12_14_1607,
"[2.6, 2.6]",4,0,5,5,3,,,,,38,0,38,0,right,0.566903168095,IOA,f,20,60.0064902133,Set,2017_12_14_1607,
"[2.6, 2.6]",4,0,5,5,3,,,,,39,0,39,0,right,0.450237593548,IOA,f,20,60.0064902133,Set,2017_12_14_1607,
"[2.6, 2.6]",4,0,5,5,3,,,,,40,0,40,0,right,0.383566532109,IOA,f,20,60.0064902133,Set,2017_12_14_1607,
"[2.6, 2.6]",4,0,5,5,3,,,,,41,0,41,0,down,0.950237593541,IOA,f,20,60.0064902133,Set,2017_12_14_1607,
"[2.6, 2.6]",4,0,5,5,3,,,,,42,0,42,0,down,0.633589229619,IOA,f,20,60.0064902133,Set,2017_12_14_1607,
"[2.6, 2.6]",4,0,5,5,3,,,,,43,0,43,0,right,0.516909049715,IOA,f,20,60.0064902133,Set,2017_12_14_1607,
"[2.6, 2.6]",4,0,5,5,3,,,,,44,0,44,0,right,0.416920418204,IOA,f,20,60.0064902133,Set,2017_12_14_1607,
"[2.6, 2.6]",4,0,5,5,3,,,,,45,0,45,0,down,0.550253462061,IOA,f,20,60.0064902133,Set,2017_12_14_1607,
"[2.6, 2.6]",4,0,5,5,3,,,,,46,0,46,0,right,1.43355828206,IOA,f,20,60.0064902133,Set,2017_12_14_1607,
"[2.6, 2.6]",4,0,5,5,3,,,,,47,0,47,0,right,0.533557176794,IOA,f,20,60.0064902133,Set,2017_12_14_1607,
"[2.6, 2.6]",4,0,5,5,3,,,,,48,0,48,0,down,0.866926299816,IOA,f,20,60.0064902133,Set,2017_12_14_1607,
"[2.6, 2.6]",4,0,5,5,3,,,,,49,0,49,0,down,0.63358409801,IOA,f,20,60.0064902133,Set,2017_12_14_1607,
"[2.8, 2.8]",1,0,6,6,12,,,,,0,0,0,0,right,0.566909089182,IOA,f,20,60.0064902133,Set,2017_12_14_1607,
"[2.8, 2.8]",1,0,6,6,12,,,,,1,0,1,0,down,0.700250027825,IOA,f,20,60.0064902133,Set,2017_12_14_1607,
"[2.8, 2.8]",1,0,6,6,12,,,,,2,0,2,0,left,0.650235383007,IOA,f,20,60.0064902133,Set,2017_12_14_1607,
"[2.8, 2.8]",1,0,6,6,12,,,,,3,0,3,0,right,1.01689918123,IOA,f,20,60.0064902133,Set,2017_12_14_1607,
"[2.8, 2.8]",1,0,6,6,12,,,,,4,0,4,0,down,0.400243080418,IOA,f,20,60.0064902133,Set,2017_12_14_1607,
"[2.8, 2.8]",1,0,6,6,12,,,,,5,0,5,0,down,0.500232501407,IOA,f,20,60.0064902133,Set,2017_12_14_1607,
"[2.7, 2.7]",4,0,7,7,9,,,,,0,0,0,0,left,0.716917497135,IOA,f,20,60.0064902133,Set,2017_12_14_1607,
"[2.7, 2.7]",4,0,7,7,9,,,,,1,0,1,0,down,1.81690889181,IOA,f,20,60.0064902133,Set,2017_12_14_1607,
"[2.7, 2.7]",4,0,7,7,9,,,,,2,0,2,0,left,0.483570163713,IOA,f,20,60.0064902133,Set,2017_12_14_1607,
"[2.7, 2.7]",4,0,7,7,9,,,,,3,0,3,0,down,0.716915128702,IOA,f,20,60.0064902133,Set,2017_12_14_1607,
"[2.7, 2.7]",4,0,7,7,9,,,,,4,0,4,0,left,0.666899694392,IOA,f,20,60.0064902133,Set,2017_12_14_1607,
"[2.7, 2.7]",4,0,7,7,9,,,,,5,0,5,0,left,0.466893615412,IOA,f,20,60.0064902133,Set,2017_12_14_1607,
"[2.7, 2.7]",4,0,7,7,9,,,,,6,0,6,0,left,0.466900325977,IOA,f,20,60.0064902133,Set,2017_12_14_1607,
"[2.7, 2.7]",4,0,7,7,9,,,,,7,0,7,0,down,0.833562150503,IOA,f,20,60.0064902133,Set,2017_12_14_1607,
"[2.7, 2.7]",4,0,7,7,9,,,,,8,0,8,0,left,0.550239251446,IOA,f,20,60.0064902133,Set,2017_12_14_1607,
"[2.7, 2.7]",4,0,7,7,9,,,,,9,0,9,0,left,1.13357383479,IOA,f,20,60.0064902133,Set,2017_12_14_1607,
"[2.7, 2.7]",4,0,7,7,9,,,,,10,0,10,0,left,0.550233725102,IOA,f,20,60.0064902133,Set,2017_12_14_1607,
"[2.7, 2.7]",4,0,7,7,9,,,,,11,0,11,0,down,1.3835523215,IOA,f,20,60.0064902133,Set,2017_12_14_1607,
"[2.7, 2.7]",4,0,7,7,9,,,,,12,0,12,0,left,0.483573716367,IOA,f,20,60.0064902133,Set,2017_12_14_1607,
"[2.7, 2.7]",4,0,7,7,9,,,,,13,0,13,0,left,0.433566571584,IOA,f,20,60.0064902133,Set,2017_12_14_1607,
"[2.7, 2.7]",4,0,7,7,9,,,,,14,0,14,0,down,6.41683831244,IOA,f,20,60.0064902133,Set,2017_12_14_1607,
"[2.7, 2.7]",4,0,7,7,9,,,,,15,0,15,0,left,0.716896181213,IOA,f,20,60.0064902133,Set,2017_12_14_1607,
"[2.7, 2.7]",4,0,7,7,9,,,,,16,0,16,0,left,0.350243040943,IOA,f,20,60.0064902133,Set,2017_12_14_1607,
"[2.7, 2.7]",4,0,7,7,9,,,,,17,0,17,0,left,0.450237593541,IOA,f,20,60.0064902133,Set,2017_12_14_1607,
"[2.7, 2.7]",4,0,7,7,9,,,,,18,0,18,0,left,0.650272883227,IOA,f,20,60.0064902133,Set,2017_12_14_1607,
"[2.7, 2.7]",4,0,7,7,9,,,,,19,0,19,0,left,2.0333811231,IOA,f,20,60.0064902133,Set,2017_12_14_1607,
"[2.7, 2.7]",4,0,7,7,9,,,,,20,0,20,0,right,0.516917339242,IOA,f,20,60.0064902133,Set,2017_12_14_1607,
"[2.7, 2.7]",4,0,7,7,9,,,,,21,0,21,0,left,0.433556703101,IOA,f,20,60.0064902133,Set,2017_12_14_1607,
"[2.7, 2.7]",4,0,7,7,9,,,,,22,0,22,0,down,0.666906799699,IOA,f,20,60.0064902133,Set,2017_12_14_1607,
"[2.7, 2.7]",4,0,7,7,9,,,,,23,0,23,0,left,0.850215803934,IOA,f,20,60.0064902133,Set,2017_12_14_1607,
"[2.7, 2.7]",4,0,7,7,9,,,,,24,0,24,0,right,0.533576519018,IOA,f,20,60.0064902133,Set,2017_12_14_1607,
"[2.7, 2.7]",4,0,7,7,9,,,,,25,0,25,0,left,0.51690233915,IOA,f,20,60.0064902133,Set,2017_12_14_1607,
"[2.7, 2.7]",4,0,7,7,9,,,,,26,0,26,0,right,0.750222830291,IOA,f,20,60.0064902133,Set,2017_12_14_1607,
"[2.7, 2.7]",4,0,7,7,9,,,,,27,0,27,0,left,1.08356550579,IOA,f,20,60.0064902133,Set,2017_12_14_1607,
"[2.7, 2.7]",4,0,7,7,9,,,,,28,0,28,0,right,0.483563058413,IOA,f,20,60.0064902133,Set,2017_12_14_1607,
"[2.7, 2.7]",4,0,7,7,9,,,,,29,0,29,0,down,1.88353692667,IOA,f,20,60.0064902133,Set,2017_12_14_1607,
"[2.7, 2.7]",4,0,7,7,9,,,,,30,0,30,0,right,0.466901115455,IOA,f,20,60.0064902133,Set,2017_12_14_1607,
"[2.7, 2.7]",4,0,7,7,9,,,,,31,0,31,0,left,0.666891799607,IOA,f,20,60.0064902133,Set,2017_12_14_1607,
"[2.7, 2.7]",4,0,7,7,9,,,,,32,0,32,0,left,0.58356274262,IOA,f,20,60.0064902133,Set,2017_12_14_1607,
"[2.7, 2.7]",4,0,7,7,9,,,,,33,0,33,0,down,0.466735719718,IOA,f,20,60.0064902133,Set,2017_12_14_1607,
"[2.7, 2.7]",4,0,7,7,9,,,,,34,0,34,0,right,0.266897799651,IOA,f,20,60.0064902133,Set,2017_12_14_1607,
"[2.7, 2.7]",4,0,7,7,9,,,,,35,0,35,0,right,0.366921957684,IOA,f,20,60.0064902133,Set,2017_12_14_1607,
"[2.7, 2.7]",4,0,7,7,9,,,,,36,0,36,0,right,0.30024339621,IOA,f,20,60.0064902133,Set,2017_12_14_1607,
"[2.7, 2.7]",4,0,7,7,9,,,,,37,0,37,0,down,0.550267277933,IOA,f,20,60.0064902133,Set,2017_12_14_1607,
"[2.7, 2.7]",4,0,7,7,9,,,,,38,0,38,0,down,0.566911062881,IOA,f,20,60.0064902133,Set,2017_12_14_1607,
"[2.6, 2.6]",5,0,8,8,4,,,,,0,0,0,0,down,1.18358413749,IOA,f,20,60.0064902133,Set,2017_12_14_1607,
"[2.6, 2.6]",5,0,8,8,4,,,,,1,0,1,0,right,0.333556229423,IOA,f,20,60.0064902133,Set,2017_12_14_1607,
"[2.6, 2.6]",5,0,8,8,4,,,,,2,0,2,0,right,0.566910668145,IOA,f,20,60.0064902133,Set,2017_12_14_1607,
"[2.6, 2.6]",5,0,8,8,4,,,,,3,0,3,0,right,0.933407096942,IOA,f,20,60.0064902133,Set,2017_12_14_1607,
"[2.6, 2.6]",5,0,8,8,4,,,,,4,0,4,0,right,0.350230804026,IOA,f,20,60.0064902133,Set,2017_12_14_1607,
"[2.6, 2.6]",5,0,8,8,4,,,,,5,0,5,0,right,0.333657282667,IOA,f,20,60.0064902133,Set,2017_12_14_1607,
"[2.6, 2.6]",5,0,8,8,4,,,,,6,0,6,0,right,0.566896457531,IOA,f,20,60.0064902133,Set,2017_12_14_1607,
"[2.6, 2.6]",5,0,8,8,4,,,,,7,0,7,0,down,1.33357280846,IOA,f,20,60.0064902133,Set,2017_12_14_1607,
"[2.6, 2.6]",5,0,8,8,4,,,,,8,0,8,0,down,0.700245685701,IOA,f,20,60.0064902133,Set,2017_12_14_1607,
"[2.7, 2.7]",1,0,9,9,6,,,,,0,0,0,0,right,0.900226106627,IOA,f,20,60.0064902133,Set,2017_12_14_1607,
"[2.7, 2.7]",1,0,9,9,6,,,,,1,0,1,0,right,0.566904352316,IOA,f,20,60.0064902133,Set,2017_12_14_1607,
"[2.7, 2.7]",1,0,9,9,6,,,,,2,0,2,0,right,0.683582558529,IOA,f,20,60.0064902133,Set,2017_12_14_1607,
"[2.7, 2.7]",1,0,9,9,6,,,,,3,0,3,0,down,0.500212764447,IOA,f,20,60.0064902133,Set,2017_12_14_1607,
"[2.7, 2.7]",1,0,9,9,6,,,,,4,0,4,0,right,0.716896575956,IOA,f,20,60.0064902133,Set,2017_12_14_1607,
"[2.7, 2.7]",1,0,9,9,6,,,,,5,0,5,0,left,0.350227646108,IOA,f,20,60.0064902133,Set,2017_12_14_1607,
"[2.7, 2.7]",1,0,9,9,6,,,,,6,0,6,0,down,0.683554532035,IOA,f,20,60.0064902133,Set,2017_12_14_1607,
"[2.7, 2.7]",1,0,9,9,6,,,,,7,0,7,0,right,0.416972129038,IOA,f,20,60.0064902133,Set,2017_12_14_1607,
"[2.7, 2.7]",1,0,9,9,6,,,,,8,0,8,0,right,0.733565229479,IOA,f,20,60.0064902133,Set,2017_12_14_1607,
"[2.7, 2.7]",1,0,9,9,6,,,,,9,0,9,0,down,4.78353724246,IOA,f,20,60.0064902133,Set,2017_12_14_1607,
"[2.7, 2.7]",1,0,9,9,6,,,,,10,0,10,0,right,0.400247817292,IOA,f,20,60.0064902133,Set,2017_12_14_1607,
"[2.7, 2.7]",1,0,9,9,6,,,,,11,0,11,0,right,0.283592505955,IOA,f,20,60.0064902133,Set,2017_12_14_1607,
"[2.7, 2.7]",1,0,9,9,6,,,,,12,0,12,0,left,0.650225514524,IOA,f,20,60.0064902133,Set,2017_12_14_1607,
"[2.7, 2.7]",1,0,9,9,6,,,,,13,0,13,0,right,0.433579992714,IOA,f,20,60.0064902133,Set,2017_12_14_1607,
"[2.7, 2.7]",1,0,9,9,6,,,,,14,0,14,0,right,0.250239804082,IOA,f,20,60.0064902133,Set,2017_12_14_1607,
"[2.7, 2.7]",1,0,9,9,6,,,,,15,0,15,0,right,0.316891128547,IOA,f,20,60.0064902133,Set,2017_12_14_1607,
"[2.7, 2.7]",1,0,9,9,6,,,,,16,0,16,0,right,0.300237080381,IOA,f,20,60.0064902133,Set,2017_12_14_1607,
"[2.7, 2.7]",1,0,9,9,6,,,,,17,0,17,0,right,0.316893102252,IOA,f,20,60.0064902133,Set,2017_12_14_1607,
"[2.7, 2.7]",1,0,9,9,6,,,,,18,0,18,0,right,0.300247738342,IOA,f,20,60.0064902133,Set,2017_12_14_1607,
"[2.7, 2.7]",1,0,9,9,6,,,,,19,0,19,0,left,0.450243119893,IOA,f,20,60.0064902133,Set,2017_12_14_1607,
"[2.7, 2.7]",1,0,9,9,6,,,,,20,0,20,0,left,0.816886786422,IOA,f,20,60.0064902133,Set,2017_12_14_1607,
"[2.7, 2.7]",1,0,9,9,6,,,,,21,0,21,0,right,0.400229659281,IOA,f,20,60.0064902133,Set,2017_12_14_1607,
"[2.7, 2.7]",1,0,9,9,6,,,,,22,0,22,0,right,0.400235580375,IOA,f,20,60.0064902133,Set,2017_12_14_1607,
"[2.7, 2.7]",1,0,9,9,6,,,,,23,0,23,0,right,0.350230409284,IOA,f,20,60.0064902133,Set,2017_12_14_1607,
"[2.7, 2.7]",1,0,9,9,6,,,,,24,0,24,0,right,0.900224922414,IOA,f,20,60.0064902133,Set,2017_12_14_1607,
"[2.7, 2.7]",1,0,9,9,6,,,,,25,0,25,0,right,0.383574032159,IOA,f,20,60.0064902133,Set,2017_12_14_1607,
"[2.7, 2.7]",1,0,9,9,6,,,,,26,0,26,0,left,0.300241027777,IOA,f,20,60.0064902133,Set,2017_12_14_1607,
"[2.7, 2.7]",1,0,9,9,6,,,,,27,0,27,0,left,0.333585440123,IOA,f,20,60.0064902133,Set,2017_12_14_1607,
"[2.7, 2.7]",1,0,9,9,6,,,,,28,0,28,0,right,0.616896497006,IOA,f,20,60.0064902133,Set,2017_12_14_1607,
"[2.7, 2.7]",1,0,9,9,6,,,,,29,0,29,0,left,0.350244225163,IOA,f,20,60.0064902133,Set,2017_12_14_1607,
"[2.7, 2.7]",1,0,9,9,6,,,,,30,0,30,0,right,0.950226540845,IOA,f,20,60.0064902133,Set,2017_12_14_1607,
"[2.7, 2.7]",1,0,9,9,6,,,,,31,0,31,0,right,0.333582676947,IOA,f,20,60.0064902133,Set,2017_12_14_1607,
"[2.7, 2.7]",1,0,9,9,6,,,,,32,0,32,0,right,0.283586584868,IOA,f,20,60.0064902133,Set,2017_12_14_1607,
"[2.7, 2.7]",1,0,9,9,6,,,,,33,0,33,0,right,0.26690293126,IOA,f,20,60.0064902133,Set,2017_12_14_1607,
"[2.7, 2.7]",1,0,9,9,6,,,,,34,0,34,0,right,0.266906089164,IOA,f,20,60.0064902133,Set,2017_12_14_1607,
"[2.7, 2.7]",1,0,9,9,6,,,,,35,0,35,0,right,0.250233882995,IOA,f,20,60.0064902133,Set,2017_12_14_1607,
"[2.7, 2.7]",1,0,9,9,6,,,,,36,0,36,0,right,0.200224369779,IOA,f,20,60.0064902133,Set,2017_12_14_1607,
"[2.7, 2.7]",1,0,9,9,6,,,,,37,0,37,0,right,0.200270159527,IOA,f,20,60.0064902133,Set,2017_12_14_1607,
"[2.7, 2.7]",1,0,9,9,6,,,,,38,0,38,0,right,0.300224843471,IOA,f,20,60.0064902133,Set,2017_12_14_1607,
"[2.7, 2.7]",1,0,9,9,6,,,,,39,0,39,0,right,0.133575413747,IOA,f,20,60.0064902133,Set,2017_12_14_1607,
"[2.7, 2.7]",1,0,9,9,6,,,,,40,0,40,0,down,0.366897483851,IOA,f,20,60.0064902133,Set,2017_12_14_1607,
"[2.7, 2.7]",1,0,9,9,6,,,,,41,0,41,0,down,0.266956615793,IOA,f,20,60.0064902133,Set,2017_12_14_1607,
"[2.7, 2.7]",1,0,9,9,6,,,,,42,0,42,0,right,1.15024288305,IOA,f,20,60.0064902133,Set,2017_12_14_1607,
"[2.7, 2.7]",1,0,9,9,6,,,,,43,0,43,0,left,0.366919983993,IOA,f,20,60.0064902133,Set,2017_12_14_1607,
"[2.7, 2.7]",1,0,9,9,6,,,,,44,0,44,0,left,0.316891523289,IOA,f,20,60.0064902133,Set,2017_12_14_1607,
"[2.7, 2.7]",1,0,9,9,6,,,,,45,0,45,0,right,0.200250027832,IOA,f,20,60.0064902133,Set,2017_12_14_1607,
"[2.7, 2.7]",1,0,9,9,6,,,,,46,0,46,0,right,0.250242962,IOA,f,20,60.0064902133,Set,2017_12_14_1607,
"[2.7, 2.7]",1,0,9,9,6,,,,,47,0,47,0,right,0.36689314172,IOA,f,20,60.0064902133,Set,2017_12_14_1607,
"[2.7, 2.7]",1,0,9,9,6,,,,,48,0,48,0,right,0.266908457605,IOA,f,20,60.0064902133,Set,2017_12_14_1607,
"[2.7, 2.7]",1,0,9,9,6,,,,,49,0,49,0,right,0.316904154948,IOA,f,20,60.0064902133,Set,2017_12_14_1607,
"[2.7, 2.7]",1,0,9,9,6,,,,,50,0,50,0,left,0.250246119911,IOA,f,20,60.0064902133,Set,2017_12_14_1607,
"[2.7, 2.7]",1,0,9,9,6,,,,,51,0,51,0,left,0.366910904988,IOA,f,20,60.0064902133,Set,2017_12_14_1607,
"[2.7, 2.7]",1,0,9,9,6,,,,,52,0,52,0,right,0.300229185603,IOA,f,20,60.0064902133,Set,2017_12_14_1607,
"[2.7, 2.7]",1,0,9,9,6,,,,,53,0,53,0,right,0.466984010687,IOA,f,20,60.0064902133,Set,2017_12_14_1607,
"[2.7, 2.7]",1,0,9,9,6,,,,,54,0,54,0,right,0.750235067215,IOA,f,20,60.0064902133,Set,2017_12_14_1607,
"[2.7, 2.7]",1,0,9,9,6,,,,,55,0,55,0,left,0.416903839156,IOA,f,20,60.0064902133,Set,2017_12_14_1607,
"[2.7, 2.7]",1,0,9,9,6,,,,,56,0,56,0,right,0.300226817162,IOA,f,20,60.0064902133,Set,2017_12_14_1607,
"[2.7, 2.7]",1,0,9,9,6,,,,,57,0,57,0,left,0.400234001419,IOA,f,20,60.0064902133,Set,2017_12_14_1607,
"[2.7, 2.7]",1,0,9,9,6,,,,,58,0,58,0,left,0.300228001382,IOA,f,20,60.0064902133,Set,2017_12_14_1607,
"[2.7, 2.7]",1,0,9,9,6,,,,,59,0,59,0,right,0.400225711892,IOA,f,20,60.0064902133,Set,2017_12_14_1607,
"[2.7, 2.7]",1,0,9,9,6,,,,,60,0,60,0,right,0.400223738194,IOA,f,20,60.0064902133,Set,2017_12_14_1607,
"[2.7, 2.7]",1,0,9,9,6,,,,,61,0,61,0,right,1.50024315937,IOA,f,20,60.0064902133,Set,2017_12_14_1607,
"[2.7, 2.7]",1,0,9,9,6,,,,,62,0,62,0,right,0.43358275589,IOA,f,20,60.0064902133,Set,2017_12_14_1607,
"[2.7, 2.7]",1,0,9,9,6,,,,,63,0,63,0,right,0.383579163768,IOA,f,20,60.0064902133,Set,2017_12_14_1607,
"[2.7, 2.7]",1,0,9,9,6,,,,,64,0,64,0,left,0.700243712003,IOA,f,20,60.0064902133,Set,2017_12_14_1607,
"[2.7, 2.7]",1,0,9,9,6,,,,,65,0,65,0,down,1.80021458025,IOA,f,20,60.0064902133,Set,2017_12_14_1607,
"[2.7, 2.7]",1,0,9,9,6,,,,,66,0,66,0,right,0.366904983901,IOA,f,20,60.0064902133,Set,2017_12_14_1607,
"[2.7, 2.7]",1,0,9,9,6,,,,,67,0,67,0,right,0.250247304131,IOA,f,20,60.0064902133,Set,2017_12_14_1607,
"[2.7, 2.7]",1,0,9,9,6,,,,,68,0,68,0,left,0.350059092467,IOA,f,20,60.0064902133,Set,2017_12_14_1607,
"[2.7, 2.7]",1,0,9,9,6,,,,,69,0,69,0,right,0.30023589616,IOA,f,20,60.0064902133,Set,2017_12_14_1607,
"[2.7, 2.7]",1,0,9,9,6,,,,,70,0,70,0,left,0.283568426858,IOA,f,20,60.0064902133,Set,2017_12_14_1607,
"[2.7, 2.7]",1,0,9,9,6,,,,,71,0,71,0,left,1.23357588743,IOA,f,20,60.0064902133,Set,2017_12_14_1607,
"[2.7, 2.7]",1,0,9,9,6,,,,,72,0,72,0,left,0.416905418111,IOA,f,20,60.0064902133,Set,2017_12_14_1607,
"[2.7, 2.7]",1,0,9,9,6,,,,,73,0,73,0,right,0.366879720583,IOA,f,20,60.0064902133,Set,2017_12_14_1607,
"[2.7, 2.7]",1,0,9,9,6,,,,,74,0,74,0,right,0.583589584887,IOA,f,20,60.0064902133,Set,2017_12_14_1607,
"[2.7, 2.7]",1,0,9,9,6,,,,,75,0,75,0,right,0.333583466425,IOA,f,20,60.0064902133,Set,2017_12_14_1607,
"[2.7, 2.7]",1,0,9,9,6,,,,,76,0,76,0,right,0.316900997037,IOA,f,20,60.0064902133,Set,2017_12_14_1607,
"[2.7, 2.7]",1,0,9,9,6,,,,,77,0,77,0,left,0.433563413673,IOA,f,20,60.0064902133,Set,2017_12_14_1607,
"[2.7, 2.7]",1,0,9,9,6,,,,,78,0,78,0,down,0.816887181158,IOA,f,20,60.0064902133,Set,2017_12_14_1607,
"[2.7, 2.7]",1,0,9,9,6,,,,,79,0,79,0,down,0.300259975258,IOA,f,20,60.0064902133,Set,2017_12_14_1607,
"[2.7, 2.7]",1,0,9,9,6,,,,,80,0,80,0,right,0.250239804089,IOA,f,20,60.0064902133,Set,2017_12_14_1607,
"[2.7, 2.7]",1,0,9,9,6,,,,,81,0,81,0,right,0.366904589166,IOA,f,20,60.0064902133,Set,2017_12_14_1607,
"[2.7, 2.7]",1,0,9,9,6,,,,,82,0,82,0,right,0.466901115455,IOA,f,20,60.0064902133,Set,2017_12_14_1607,
"[2.7, 2.7]",1,0,9,9,6,,,,,83,0,83,0,right,0.533565071579,IOA,f,20,60.0064902133,Set,2017_12_14_1607,
"[2.7, 2.7]",1,0,9,9,6,,,,,84,0,84,0,down,1.01688852328,IOA,f,20,60.0064902133,Set,2017_12_14_1607,
"[2.7, 2.7]",1,0,9,9,6,,,,,85,0,85,0,left,0.40024347516,IOA,f,20,60.0064902133,Set,2017_12_14_1607,
"[2.7, 2.7]",1,0,9,9,6,,,,,86,0,86,0,down,1.01690904971,IOA,f,20,60.0064902133,Set,2017_12_14_1607,
"[2.7, 2.7]",1,0,9,9,6,,,,,87,0,87,0,right,0.466903878631,IOA,f,20,60.0064902133,Set,2017_12_14_1607,
"[2.7, 2.7]",1,0,9,9,6,,,,,88,0,88,0,down,0.716717759082,IOA,f,20,60.0064902133,Set,2017_12_14_1607,
"[2.7, 2.7]",1,0,9,9,6,,,,,89,0,89,0,down,0.50022855401,IOA,f,20,60.0064902133,Set,2017_12_14_1607,
"[2.7, 2.7]",6,0,10,10,11,,,,,0,0,0,0,right,0.816910865513,IOA,f,20,60.0064902133,Set,2017_12_14_1607,
"[2.7, 2.7]",6,0,10,10,11,,,,,1,0,1,0,left,0.466907036542,IOA,f,20,60.0064902133,Set,2017_12_14_1607,
"[2.7, 2.7]",6,0,10,10,11,,,,,2,0,2,0,left,0.616911497098,IOA,f,20,60.0064902133,Set,2017_12_14_1607,
"[2.7, 2.7]",6,0,10,10,11,,,,,3,0,3,0,left,0.98356779528,IOA,f,20,60.0064902133,Set,2017_12_14_1607,
"[2.7, 2.7]",6,0,10,10,11,,,,,4,0,4,0,down,1.56688698379,IOA,f,20,60.0064902133,Set,2017_12_14_1607,
"[2.7, 2.7]",6,0,10,10,11,,,,,5,0,5,0,left,0.400220580275,IOA,f,20,60.0064902133,Set,2017_12_14_1607,
"[2.7, 2.7]",6,0,10,10,11,,,,,6,0,6,0,left,0.550251883105,IOA,f,20,60.0064902133,Set,2017_12_14_1607,
"[2.7, 2.7]",6,0,10,10,11,,,,,7,0,7,0,down,0.683562821563,IOA,f,20,60.0064902133,Set,2017_12_14_1607,
"[2.7, 2.7]",6,0,10,10,11,,,,,8,0,8,0,left,0.716905260211,IOA,f,20,60.0064902133,Set,2017_12_14_1607,
"[2.7, 2.7]",6,0,10,10,11,,,,,9,0,9,0,left,0.616898075961,IOA,f,20,60.0064902133,Set,2017_12_14_1607,
"[2.7, 2.7]",6,0,10,10,11,,,,,10,0,10,0,right,0.51691062867,IOA,f,20,60.0064902133,Set,2017_12_14_1607,
"[2.7, 2.7]",6,0,10,10,11,,,,,11,0,11,0,left,0.666891010129,IOA,f,20,60.0064902133,Set,2017_12_14_1607,
"[2.7, 2.7]",6,0,10,10,11,,,,,12,0,12,0,down,0.483564637361,IOA,f,20,60.0064902133,Set,2017_12_14_1607,
"[2.7, 2.7]",6,0,10,10,11,,,,,13,0,13,0,left,1.10022429084,IOA,f,20,60.0064902133,Set,2017_12_14_1607,
"[2.7, 2.7]",6,0,10,10,11,,,,,14,0,14,0,right,1.15027406745,IOA,f,20,60.0064902133,Set,2017_12_14_1607,
"[2.7, 2.7]",6,0,10,10,11,,,,,15,0,15,0,down,0.466906247064,IOA,f,20,60.0064902133,Set,2017_12_14_1607,
"[2.7, 2.7]",6,0,10,10,11,,,,,16,0,16,0,down,0.333573203206,IOA,f,20,60.0064902133,Set,2017_12_14_1607,
"[2.7, 2.7]",3,0,11,11,8,,,,,0,0,0,0,left,0.416907786552,IOA,f,20,60.0064902133,Set,2017_12_14_1607,
"[2.7, 2.7]",3,0,11,11,8,,,,,1,0,1,0,right,0.400236764588,IOA,f,20,60.0064902133,Set,2017_12_14_1607,
"[2.7, 2.7]",3,0,11,11,8,,,,,2,0,2,0,down,0.316904154941,IOA,f,20,60.0064902133,Set,2017_12_14_1607,
"[2.7, 2.7]",3,0,11,11,8,,,,,3,0,3,0,down,0.466905852321,IOA,f,20,60.0064902133,Set,2017_12_14_1607,
"[2.9, 2.9]",4,0,12,12,21,,,,,0,0,0,0,left,0.85023672512,IOA,f,20,60.0064902133,Set,2017_12_14_1607,
"[2.9, 2.9]",4,0,12,12,21,,,,,1,0,1,0,right,2.60022823823,IOA,f,20,60.0064902133,Set,2017_12_14_1607,
"[2.9, 2.9]",4,0,12,12,21,,,,,2,0,2,0,left,0.283555795206,IOA,f,20,60.0064902133,Set,2017_12_14_1607,
"[2.9, 2.9]",4,0,12,12,21,,,,,3,0,3,0,left,0.416893575937,IOA,f,20,60.0064902133,Set,2017_12_14_1607,
"[2.9, 2.9]",4,0,12,12,21,,,,,4,0,4,0,left,1.13356633474,IOA,f,20,60.0064902133,Set,2017_12_14_1607,
"[2.9, 2.9]",4,0,12,12,21,,,,,5,0,5,0,right,0.61689491805,IOA,f,20,60.0064902133,Set,2017_12_14_1607,
"[2.9, 2.9]",4,0,12,12,21,,,,,6,0,6,0,down,0.983563847891,IOA,f,20,60.0064902133,Set,2017_12_14_1607,
"[2.9, 2.9]",4,0,12,12,21,,,,,7,0,7,0,left,0.0669165892323,IOA,f,20,60.0064902133,Set,2017_12_14_1607,
"[2.9, 2.9]",4,0,12,12,21,,,,,8,0,8,0,left,0.800246554121,IOA,f,20,60.0064902133,Set,2017_12_14_1607,
"[2.9, 2.9]",4,0,12,12,21,,,,,9,0,9,0,left,0.416905812846,IOA,f,20,60.0064902133,Set,2017_12_14_1607,
"[2.9, 2.9]",4,0,12,12,21,,,,,10,0,10,0,right,0.450249830457,IOA,f,20,60.0064902133,Set,2017_12_14_1607,
"[2.9, 2.9]",4,0,12,12,21,,,,,11,0,11,0,left,0.450221803978,IOA,f,20,60.0064902133,Set,2017_12_14_1607,
"[2.9, 2.9]",4,0,12,12,21,,,,,12,0,12,0,right,0.366910904988,IOA,f,20,60.0064902133,Set,2017_12_14_1607,
"[2.9, 2.9]",4,0,12,12,21,,,,,13,0,13,0,right,0.400217027629,IOA,f,20,60.0064902133,Set,2017_12_14_1607,
"[2.9, 2.9]",4,0,12,12,21,,,,,14,0,14,0,right,0.450238383026,IOA,f,20,60.0064902133,Set,2017_12_14_1607,
"[2.9, 2.9]",4,0,12,12,21,,,,,15,0,15,0,right,1.58355287414,IOA,f,20,60.0064902133,Set,2017_12_14_1607,
"[2.9, 2.9]",4,0,12,12,21,,,,,16,0,16,0,left,0.350226067152,IOA,f,20,60.0064902133,Set,2017_12_14_1607,
"[2.9, 2.9]",4,0,12,12,21,,,,,17,0,17,0,right,0.316919549776,IOA,f,20,60.0064902133,Set,2017_12_14_1607,
"[2.9, 2.9]",4,0,12,12,21,,,,,18,0,18,0,right,0.35023435668,IOA,f,20,60.0064902133,Set,2017_12_14_1607,
"[2.9, 2.9]",4,0,12,12,21,,,,,19,0,19,0,right,0.283545926723,IOA,f,20,60.0064902133,Set,2017_12_14_1607,
"[2.9, 2.9]",4,0,12,12,21,,,,,20,0,20,0,left,0.300231554036,IOA,f,20,60.0064902133,Set,2017_12_14_1607,
"[2.9, 2.9]",4,0,12,12,21,,,,,21,0,21,0,right,0.183562821563,IOA,f,20,60.0064902133,Set,2017_12_14_1607,
"[2.9, 2.9]",4,0,12,12,21,,,,,22,0,22,0,down,0.216902891778,IOA,f,20,60.0064902133,Set,2017_12_14_1607,
"[2.9, 2.9]",4,0,12,12,21,,,,,23,0,23,0,right,0.333568861075,IOA,f,20,60.0064902133,Set,2017_12_14_1607,
"[2.9, 2.9]",4,0,12,12,21,,,,,24,0,24,0,right,0.266897010166,IOA,f,20,60.0064902133,Set,2017_12_14_1607,
"[2.9, 2.9]",4,0,12,12,21,,,,,25,0,25,0,right,0.25023427773,IOA,f,20,60.0064902133,Set,2017_12_14_1607,
"[2.9, 2.9]",4,0,12,12,21,,,,,26,0,26,0,right,0.316920733996,IOA,f,20,60.0064902133,Set,2017_12_14_1607,
"[2.9, 2.9]",4,0,12,12,21,,,,,27,0,27,0,right,0.300246554129,IOA,f,20,60.0064902133,Set,2017_12_14_1607,
"[2.9, 2.9]",4,0,12,12,21,,,,,28,0,28,0,left,0.400245843593,IOA,f,20,60.0064902133,Set,2017_12_14_1607,
"[2.9, 2.9]",4,0,12,12,21,,,,,29,0,29,0,left,0.483565821582,IOA,f,20,60.0064902133,Set,2017_12_14_1607,
"[2.9, 2.9]",4,0,12,12,21,,,,,30,0,30,0,right,0.600249159404,IOA,f,20,60.0064902133,Set,2017_12_14_1607,
"[2.9, 2.9]",4,0,12,12,21,,,,,31,0,31,0,right,1.65022156714,IOA,f,20,60.0064902133,Set,2017_12_14_1607,
"[2.9, 2.9]",4,0,12,12,21,,,,,32,0,32,0,left,0.316919155041,IOA,f,20,60.0064902133,Set,2017_12_14_1607,
"[2.9, 2.9]",4,0,12,12,21,,,,,33,0,33,0,right,1.20022673821,IOA,f,20,60.0064902133,Set,2017_12_14_1607,
"[2.9, 2.9]",4,0,12,12,21,,,,,34,0,34,0,down,0.850213830243,IOA,f,20,60.0064902133,Set,2017_12_14_1607,
"[2.9, 2.9]",4,0,12,12,21,,,,,35,0,35,0,right,0.233594834921,IOA,f,20,60.0064902133,Set,2017_12_14_1607,
"[2.9, 2.9]",4,0,12,12,21,,,,,36,0,36,0,left,0.383551137282,IOA,f,20,60.0064902133,Set,2017_12_14_1607,
"[2.9, 2.9]",4,0,12,12,21,,,,,37,0,37,0,right,0.550305172896,IOA,f,20,60.0064902133,Set,2017_12_14_1607,
"[2.9, 2.9]",4,0,12,12,21,,,,,38,0,38,0,right,0.366907352334,IOA,f,20,60.0064902133,Set,2017_12_14_1607,
"[2.9, 2.9]",4,0,12,12,21,,,,,39,0,39,0,right,0.533565466314,IOA,f,20,60.0064902133,Set,2017_12_14_1607,
"[2.9, 2.9]",4,0,12,12,21,,,,,40,0,40,0,right,0.933564992636,IOA,f,20,60.0064902133,Set,2017_12_14_1607,
"[2.9, 2.9]",4,0,12,12,21,,,,,41,0,41,0,right,1.26689582595,IOA,f,20,60.0064902133,Set,2017_12_14_1607,
"[2.9, 2.9]",4,0,12,12,21,,,,,42,0,42,0,right,0.916895549628,IOA,f,20,60.0064902133,Set,2017_12_14_1607,
"[2.9, 2.9]",4,0,12,12,21,,,,,43,0,43,0,down,2.88354482146,IOA,f,20,60.0064902133,Set,2017_12_14_1607,
"[2.9, 2.9]",4,0,12,12,21,,,,,44,0,44,0,right,0.25023427773,IOA,f,20,60.0064902133,Set,2017_12_14_1607,
"[2.9, 2.9]",4,0,12,12,21,,,,,45,0,45,0,right,2.31688915485,IOA,f,20,60.0064902133,Set,2017_12_14_1607,
"[2.9, 2.9]",4,0,12,12,21,,,,,46,0,46,0,right,0.400241106719,IOA,f,20,60.0064902133,Set,2017_12_14_1607,
"[2.9, 2.9]",4,0,12,12,21,,,,,47,0,47,0,right,0.600241264619,IOA,f,20,60.0064902133,Set,2017_12_14_1607,
"[2.9, 2.9]",4,0,12,12,21,,,,,48,0,48,0,left,0.366909720768,IOA,f,20,60.0064902133,Set,2017_12_14_1607,
"[2.9, 2.9]",4,0,12,12,21,,,,,49,0,49,0,left,0.600231790879,IOA,f,20,60.0064902133,Set,2017_12_14_1607,
"[2.9, 2.9]",4,0,12,12,21,,,,,50,0,50,0,down,0.500249869932,IOA,f,20,60.0064902133,Set,2017_12_14_1607,
"[2.9, 2.9]",4,0,12,12,21,,,,,51,0,51,0,right,0.250369673289,IOA,f,20,60.0064902133,Set,2017_12_14_1607,
"[2.9, 2.9]",4,0,12,12,21,,,,,52,0,52,0,left,0.566896852266,IOA,f,20,60.0064902133,Set,2017_12_14_1607,
"[2.9, 2.9]",4,0,12,12,21,,,,,53,0,53,0,right,0.366896694373,IOA,f,20,60.0064902133,Set,2017_12_14_1607,
"[2.9, 2.9]",4,0,12,12,21,,,,,54,0,54,0,left,0.566894483833,IOA,f,20,60.0064902133,Set,2017_12_14_1607,
"[2.9, 2.9]",4,0,12,12,21,,,,,55,0,55,0,right,0.483557532054,IOA,f,20,60.0064902133,Set,2017_12_14_1607,
"[2.9, 2.9]",4,0,12,12,21,,,,,56,0,56,0,left,0.5835615584,IOA,f,20,60.0064902133,Set,2017_12_14_1607,
"[2.9, 2.9]",4,0,12,12,21,,,,,57,0,57,0,right,0.266730430216,IOA,f,20,60.0064902133,Set,2017_12_14_1607,
"[2.9, 2.9]",4,0,12,12,21,,,,,58,0,58,0,down,0.683399794259,IOA,f,20,60.0064902133,Set,2017_12_14_1607,
"[2.9, 2.9]",4,0,12,12,21,,,,,59,0,59,0,down,0.400219790805,IOA,f,20,60.0064902133,Set,2017_12_14_1607,
"[2.9, 2.9]",4,0,12,12,21,,,,,60,0,60,0,right,0.50024236989,IOA,f,20,60.0064902133,Set,2017_12_14_1607,
"[2.9, 2.9]",4,0,12,12,21,,,,,61,0,61,0,down,0.816928234039,IOA,f,20,60.0064902133,Set,2017_12_14_1607,
"[2.9, 2.9]",4,0,12,12,21,,,,,62,0,62,0,left,0.400390712894,IOA,f,20,60.0064902133,Set,2017_12_14_1607,
"[2.9, 2.9]",4,0,12,12,21,,,,,63,0,63,0,down,0.433570518981,IOA,f,20,60.0064902133,Set,2017_12_14_1607,
"[2.9, 2.9]",4,0,12,12,21,,,,,64,0,64,0,right,0.350237514591,IOA,f,20,60.0064902133,Set,2017_12_14_1607,
"[2.9, 2.9]",4,0,12,12,21,,,,,65,0,65,0,down,0.533564282101,IOA,f,20,60.0064902133,Set,2017_12_14_1607,
"[2.9, 2.9]",4,0,12,12,21,,,,,66,0,66,0,down,0.250248883087,IOA,f,20,60.0064902133,Set,2017_12_14_1607,
"[2.9, 2.9]",4,0,12,12,21,,,,,67,0,67,0,right,0.500241185669,IOA,f,20,60.0064902133,Set,2017_12_14_1607,
"[2.9, 2.9]",4,0,12,12,21,,,,,68,0,68,0,down,1.45025575155,IOA,f,20,60.0064902133,Set,2017_12_14_1607,
"[2.9, 2.9]",4,0,12,12,21,,,,,69,0,69,0,right,0.216888681171,IOA,f,20,60.0064902133,Set,2017_12_14_1607,
"[2.9, 2.9]",4,0,12,12,21,,,,,70,0,70,0,right,0.583580111139,IOA,f,20,60.0064902133,Set,2017_12_14_1607,
"[2.9, 2.9]",4,0,12,12,21,,,,,71,0,71,0,right,0.350238304076,IOA,f,20,60.0064902133,Set,2017_12_14_1607,
"[2.9, 2.9]",4,0,12,12,21,,,,,72,0,72,0,right,0.450239172504,IOA,f,20,60.0064902133,Set,2017_12_14_1607,
"[2.9, 2.9]",4,0,12,12,21,,,,,73,0,73,0,right,0.43355354519,IOA,f,20,60.0064902133,Set,2017_12_14_1607,
"[2.9, 2.9]",4,0,12,12,21,,,,,74,0,74,0,right,0.783567242637,IOA,f,20,60.0064902133,Set,2017_12_14_1607,
"[2.9, 2.9]",4,0,12,12,21,,,,,75,0,75,0,left,0.350222514506,IOA,f,20,60.0064902133,Set,2017_12_14_1607,
"[2.9, 2.9]",4,0,12,12,21,,,,,76,0,76,0,down,0.766876483729,IOA,f,20,60.0064902133,Set,2017_12_14_1607,
"[2.9, 2.9]",4,0,12,12,21,,,,,77,0,77,0,right,0.88356258472,IOA,f,20,60.0064902133,Set,2017_12_14_1607,
"[2.9, 2.9]",4,0,12,12,21,,,,,78,0,78,0,right,2.05022740927,IOA,f,20,60.0064902133,Set,2017_12_14_1607,
"[2.9, 2.9]",4,0,12,12,21,,,,,79,0,79,0,down,1.10022271187,IOA,f,20,60.0064902133,Set,2017_12_14_1607,
"[2.9, 2.9]",4,0,12,12,21,,,,,80,0,80,0,left,0.333603203391,IOA,f,20,60.0064902133,Set,2017_12_14_1607,
"[2.9, 2.9]",4,0,12,12,21,,,,,81,0,81,0,down,0.266917141867,IOA,f,20,60.0064902133,Set,2017_12_14_1607,
"[2.9, 2.9]",4,0,12,12,21,,,,,82,0,82,0,left,0.416911733933,IOA,f,20,60.0064902133,Set,2017_12_14_1607,
"[2.9, 2.9]",4,0,12,12,21,,,,,83,0,83,0,right,0.450097855857,IOA,f,20,60.0064902133,Set,2017_12_14_1607,
"[2.9, 2.9]",4,0,12,12,21,,,,,84,0,84,0,down,0.766908457605,IOA,f,20,60.0064902133,Set,2017_12_14_1607,
"[2.9, 2.9]",4,0,12,12,21,,,,,85,0,85,0,right,0.233579045351,IOA,f,20,60.0064902133,Set,2017_12_14_1607,
"[2.9, 2.9]",4,0,12,12,21,,,,,86,0,86,0,down,0.300240238292,IOA,f,20,60.0064902133,Set,2017_12_14_1607,
"[2.9, 2.9]",4,0,12,12,21,,,,,87,0,87,0,right,0.416900681244,IOA,f,20,60.0064902133,Set,2017_12_14_1607,
"[2.9, 2.9]",4,0,12,12,21,,,,,88,0,88,0,right,0.36690261546,IOA,f,20,60.0064902133,Set,2017_12_14_1607,
"[2.9, 2.9]",4,0,12,12,21,,,,,89,0,89,0,down,0.733586940129,IOA,f,20,60.0064902133,Set,2017_12_14_1607,
"[2.9, 2.9]",4,0,12,12,21,,,,,90,0,90,0,down,1.55025346206,IOA,f,20,60.0064902133,Set,2017_12_14_1607,
"[2.9, 2.9]",4,0,12,12,21,,,,,91,0,91,0,right,0.150228277693,IOA,f,20,60.0064902133,Set,2017_12_14_1607,
"[2.9, 2.9]",4,0,12,12,21,,,,,92,0,92,0,right,0.483568190015,IOA,f,20,60.0064902133,Set,2017_12_14_1607,
"[2.9, 2.9]",4,0,12,12,21,,,,,93,0,93,0,right,0.483583979585,IOA,f,20,60.0064902133,Set,2017_12_14_1607,
"[2.9, 2.9]",4,0,12,12,21,,,,,94,0,94,0,down,2.11689965492,IOA,f,20,60.0064902133,Set,2017_12_14_1607,
"[2.9, 2.9]",4,0,12,12,21,,,,,95,0,95,0,right,0.300244185688,IOA,f,20,60.0064902133,Set,2017_12_14_1607,
"[2.9, 2.9]",4,0,12,12,21,,,,,96,0,96,0,right,0.883554295193,IOA,f,20,60.0064902133,Set,2017_12_14_1607,
"[2.9, 2.9]",4,0,12,12,21,,,,,97,0,97,0,right,0.350231198769,IOA,f,20,60.0064902133,Set,2017_12_14_1607,
"[2.9, 2.9]",4,0,12,12,21,,,,,98,0,98,0,right,0.383572453204,IOA,f,20,60.0064902133,Set,2017_12_14_1607,
"[2.9, 2.9]",4,0,12,12,21,,,,,99,0,99,0,right,0.600221922396,IOA,f,20,60.0064902133,Set,2017_12_14_1607,
"[2.7, 2.7]",2,0,13,13,7,,,,,0,0,0,0,left,0.733567597912,IOA,f,20,60.0064902133,Set,2017_12_14_1607,
"[2.7, 2.7]",2,0,13,13,7,,,,,1,0,1,0,left,0.900233211934,IOA,f,20,60.0064902133,Set,2017_12_14_1607,
"[2.7, 2.7]",2,0,13,13,7,,,,,2,0,2,0,right,0.250249672557,IOA,f,20,60.0064902133,Set,2017_12_14_1607,
"[2.7, 2.7]",2,0,13,13,7,,,,,3,0,3,0,right,0.416908576022,IOA,f,20,60.0064902133,Set,2017_12_14_1607,
"[2.7, 2.7]",2,0,13,13,7,,,,,4,0,4,0,right,0.300273001652,IOA,f,20,60.0064902133,Set,2017_12_14_1607,
"[2.7, 2.7]",2,0,13,13,7,,,,,5,0,5,0,right,0.283572768989,IOA,f,20,60.0064902133,Set,2017_12_14_1607,
"[2.7, 2.7]",2,0,13,13,7,,,,,6,0,6,0,right,0.200084237353,IOA,f,20,60.0064902133,Set,2017_12_14_1607,
"[2.7, 2.7]",2,0,13,13,7,,,,,7,0,7,0,right,0.216914339217,IOA,f,20,60.0064902133,Set,2017_12_14_1607,
"[2.7, 2.7]",2,0,13,13,7,,,,,8,0,8,0,right,0.0835560320484,IOA,f,20,60.0064902133,Set,2017_12_14_1607,
"[2.7, 2.7]",2,0,13,13,7,,,,,9,0,9,0,right,0.150235383007,IOA,f,20,60.0064902133,Set,2017_12_14_1607,
"[2.7, 2.7]",2,0,13,13,7,,,,,10,0,10,0,right,0.166907589177,IOA,f,20,60.0064902133,Set,2017_12_14_1607,
"[2.7, 2.7]",2,0,13,13,7,,,,,11,0,11,0,right,0.233580624306,IOA,f,20,60.0064902133,Set,2017_12_14_1607,
"[2.7, 2.7]",2,0,13,13,7,,,,,12,0,12,0,right,0.16690285231,IOA,f,20,60.0064902133,Set,2017_12_14_1607,
"[2.7, 2.7]",2,0,13,13,7,,,,,13,0,13,0,right,0.183570716348,IOA,f,20,60.0064902133,Set,2017_12_14_1607,
"[2.7, 2.7]",2,0,13,13,7,,,,,14,0,14,0,right,0.283572768989,IOA,f,20,60.0064902133,Set,2017_12_14_1607,
"[2.7, 2.7]",2,0,13,13,7,,,,,15,0,15,0,right,0.416905418111,IOA,f,20,60.0064902133,Set,2017_12_14_1607,
"[2.7, 2.7]",2,0,13,13,7,,,,,16,0,16,0,down,0.516918523448,IOA,f,20,60.0064902133,Set,2017_12_14_1607,
"[2.7, 2.7]",2,0,13,13,7,,,,,17,0,17,0,right,0.36690893129,IOA,f,20,60.0064902133,Set,2017_12_14_1607,
"[2.7, 2.7]",2,0,13,13,7,,,,,18,0,18,0,right,0.233578255866,IOA,f,20,60.0064902133,Set,2017_12_14_1607,
"[2.7, 2.7]",2,0,13,13,7,,,,,19,0,19,0,right,0.250233488252,IOA,f,20,60.0064902133,Set,2017_12_14_1607,
"[2.7, 2.7]",2,0,13,13,7,,,,,20,0,20,0,left,0.26689424699,IOA,f,20,60.0064902133,Set,2017_12_14_1607,
"[2.7, 2.7]",2,0,13,13,7,,,,,21,0,21,0,right,0.333564124208,IOA,f,20,60.0064902133,Set,2017_12_14_1607,
"[2.7, 2.7]",2,0,13,13,7,,,,,22,0,22,0,down,0.600236527753,IOA,f,20,60.0064902133,Set,2017_12_14_1607,
"[2.7, 2.7]",2,0,13,13,7,,,,,23,0,23,0,right,0.183552558345,IOA,f,20,60.0064902133,Set,2017_12_14_1607,
"[2.7, 2.7]",2,0,13,13,7,,,,,24,0,24,0,right,0.366903799681,IOA,f,20,60.0064902133,Set,2017_12_14_1607,
"[2.7, 2.7]",2,0,13,13,7,,,,,25,0,25,0,down,0.383580742724,IOA,f,20,60.0064902133,Set,2017_12_14_1607,
"[2.7, 2.7]",2,0,13,13,7,,,,,26,0,26,0,right,0.133578966401,IOA,f,20,60.0064902133,Set,2017_12_14_1607,
"[2.7, 2.7]",2,0,13,13,7,,,,,27,0,27,0,right,0.150237751441,IOA,f,20,60.0064902133,Set,2017_12_14_1607,
"[2.7, 2.7]",2,0,13,13,7,,,,,28,0,28,0,right,0.0669063260139,IOA,f,20,60.0064902133,Set,2017_12_14_1607,
"[2.7, 2.7]",2,0,13,13,7,,,,,29,0,29,0,right,0.166899694392,IOA,f,20,60.0064902133,Set,2017_12_14_1607,
"[2.7, 2.7]",2,0,13,13,7,,,,,30,0,30,0,right,0.100248764662,IOA,f,20,60.0064902133,Set,2017_12_14_1607,
"[2.7, 2.7]",2,0,13,13,7,,,,,31,0,31,0,right,0.166914299742,IOA,f,20,60.0064902133,Set,2017_12_14_1607,
"[2.7, 2.7]",2,0,13,13,7,,,,,32,0,32,0,left,0.5169019444,IOA,f,20,60.0064902133,Set,2017_12_14_1607,
"[2.7, 2.7]",2,0,13,13,7,,,,,33,0,33,0,right,0.366906562856,IOA,f,20,60.0064902133,Set,2017_12_14_1607,
"[2.7, 2.7]",2,0,13,13,7,,,,,34,0,34,0,right,0.183552953087,IOA,f,20,60.0064902133,Set,2017_12_14_1607,
"[2.7, 2.7]",2,0,13,13,7,,,,,35,0,35,0,right,0.333568861075,IOA,f,20,60.0064902133,Set,2017_12_14_1607,
"[2.7, 2.7]",2,0,13,13,7,,,,,36,0,36,0,right,0.366905378643,IOA,f,20,60.0064902133,Set,2017_12_14_1607,
"[2.7, 2.7]",2,0,13,13,7,,,,,37,0,37,0,right,0.20024963309,IOA,f,20,60.0064902133,Set,2017_12_14_1607,
"[2.7, 2.7]",2,0,13,13,7,,,,,38,0,38,0,right,0.0669047470583,IOA,f,20,60.0064902133,Set,2017_12_14_1607,
"[2.7, 2.7]",2,0,13,13,7,,,,,39,0,39,0,right,0.250243356735,IOA,f,20,60.0064902133,Set,2017_12_14_1607,
"[2.7, 2.7]",2,0,13,13,7,,,,,40,0,40,0,down,0.300228790853,IOA,f,20,60.0064902133,Set,2017_12_14_1607,
"[2.7, 2.7]",2,0,13,13,7,,,,,41,0,41,0,right,0.400071368851,IOA,f,20,60.0064902133,Set,2017_12_14_1607,
"[2.7, 2.7]",2,0,13,13,7,,,,,42,0,42,0,down,0.533547308311,IOA,f,20,60.0064902133,Set,2017_12_14_1607,
"[2.7, 2.7]",2,0,13,13,7,,,,,43,0,43,0,down,0.300229185603,IOA,f,20,60.0064902133,Set,2017_12_14_1607,
"[2.7, 2.7]",2,0,13,13,7,,,,,44,0,44,0,right,0.36690261546,IOA,f,20,60.0064902133,Set,2017_12_14_1607,
"[2.7, 2.7]",2,0,13,13,7,,,,,45,0,45,0,right,0.166907589177,IOA,f,20,60.0064902133,Set,2017_12_14_1607,
"[2.7, 2.7]",2,0,13,13,7,,,,,46,0,46,0,right,0.20023502774,IOA,f,20,60.0064902133,Set,2017_12_14_1607,
"[2.7, 2.7]",2,0,13,13,7,,,,,47,0,47,0,right,0.266917931345,IOA,f,20,60.0064902133,Set,2017_12_14_1607,
"[2.7, 2.7]",2,0,13,13,7,,,,,48,0,48,0,right,0.233564439994,IOA,f,20,60.0064902133,Set,2017_12_14_1607,
"[2.7, 2.7]",2,0,13,13,7,,,,,49,0,49,0,right,0.083593927011,IOA,f,20,60.0064902133,Set,2017_12_14_1607,
"[2.7, 2.7]",2,0,13,13,7,,,,,50,0,50,0,right,0.516905102319,IOA,f,20,60.0064902133,Set,2017_12_14_1607,
"[2.7, 2.7]",2,0,13,13,7,,,,,51,0,51,0,right,0.300235106683,IOA,f,20,60.0064902133,Set,2017_12_14_1607,
"[2.7, 2.7]",2,0,13,13,7,,,,,52,0,52,0,right,0.600236922481,IOA,f,20,60.0064902133,Set,2017_12_14_1607,
"[2.7, 2.7]",2,0,13,13,7,,,,,53,0,53,0,right,0.183569532128,IOA,f,20,60.0064902133,Set,2017_12_14_1607,
"[2.7, 2.7]",2,0,13,13,7,,,,,54,0,54,0,right,0.150229067178,IOA,f,20,60.0064902133,Set,2017_12_14_1607,
"[2.7, 2.7]",2,0,13,13,7,,,,,55,0,55,0,right,0.250236251435,IOA,f,20,60.0064902133,Set,2017_12_14_1607,
"[2.7, 2.7]",2,0,13,13,7,,,,,56,0,56,0,right,0.20024331726,IOA,f,20,60.0064902133,Set,2017_12_14_1607,
"[2.7, 2.7]",2,0,13,13,7,,,,,57,0,57,0,right,0.0669027733602,IOA,f,20,60.0064902133,Set,2017_12_14_1607,
"[2.7, 2.7]",2,0,13,13,7,,,,,58,0,58,0,right,0.133569097918,IOA,f,20,60.0064902133,Set,2017_12_14_1607,
"[2.7, 2.7]",2,0,13,13,7,,,,,59,0,59,0,right,0.0668964575307,IOA,f,20,60.0064902133,Set,2017_12_14_1607,
"[2.7, 2.7]",2,0,13,13,7,,,,,60,0,60,0,down,0.316896654906,IOA,f,20,60.0064902133,Set,2017_12_14_1607,
"[2.7, 2.7]",2,0,13,13,7,,,,,61,0,61,0,right,0.216915128694,IOA,f,20,60.0064902133,Set,2017_12_14_1607,
"[2.7, 2.7]",2,0,13,13,7,,,,,62,0,62,0,right,0.166954957887,IOA,f,20,60.0064902133,Set,2017_12_14_1607,
"[2.7, 2.7]",2,0,13,13,7,,,,,63,0,63,0,right,0.216883549561,IOA,f,20,60.0064902133,Set,2017_12_14_1607,
"[2.7, 2.7]",2,0,13,13,7,,,,,64,0,64,0,left,0.500371844355,IOA,f,20,60.0064902133,Set,2017_12_14_1607,
"[2.7, 2.7]",2,0,13,13,7,,,,,65,0,65,0,down,0.250232698774,IOA,f,20,60.0064902133,Set,2017_12_14_1607,
"[2.7, 2.7]",2,0,13,13,7,,,,,66,0,66,0,down,0.650227882958,IOA,f,20,60.0064902133,Set,2017_12_14_1607,
"[2.7, 2.7]",2,0,13,13,7,,,,,67,0,67,0,left,0.333560176805,IOA,f,20,60.0064902133,Set,2017_12_14_1607,
"[2.7, 2.7]",2,0,13,13,7,,,,,68,0,68,0,down,0.73357786113,IOA,f,20,60.0064902133,Set,2017_12_14_1607,
"[2.7, 2.7]",2,0,13,13,7,,,,,69,0,69,0,left,0.300217738164,IOA,f,20,60.0064902133,Set,2017_12_14_1607,
"[2.7, 2.7]",2,0,13,13,7,,,,,70,0,70,0,down,0.533565071579,IOA,f,20,60.0064902133,Set,2017_12_14_1607,
"[2.7, 2.7]",2,0,13,13,7,,,,,71,0,71,0,right,0.266921483999,IOA,f,20,60.0064902133,Set,2017_12_14_1607,
"[2.7, 2.7]",2,0,13,13,7,,,,,72,0,72,0,right,0.316919944518,IOA,f,20,60.0064902133,Set,2017_12_14_1607,
"[2.7, 2.7]",2,0,13,13,7,,,,,73,0,73,0,right,0.266892273299,IOA,f,20,60.0064902133,Set,2017_12_14_1607,
"[2.7, 2.7]",2,0,13,13,7,,,,,74,0,74,0,right,0.383575611115,IOA,f,20,60.0064902133,Set,2017_12_14_1607,
"[2.7, 2.7]",2,0,13,13,7,,,,,75,0,75,0,down,0.750223619769,IOA,f,20,60.0064902133,Set,2017_12_14_1607,
"[2.7, 2.7]",2,0,13,13,7,,,,,76,0,76,0,right,0.400239133029,IOA,f,20,60.0064902133,Set,2017_12_14_1607,
"[2.7, 2.7]",2,0,13,13,7,,,,,77,0,77,0,right,0.283414478567,IOA,f,20,60.0064902133,Set,2017_12_14_1607,
"[2.7, 2.7]",2,0,13,13,7,,,,,78,0,78,0,down,0.400232817199,IOA,f,20,60.0064902133,Set,2017_12_14_1607,
"[2.7, 2.7]",2,0,13,13,7,,,,,79,0,79,0,right,0.266875694251,IOA,f,20,60.0064902133,Set,2017_12_14_1607,
"[2.7, 2.7]",2,0,13,13,7,,,,,80,0,80,0,right,0.500307501861,IOA,f,20,60.0064902133,Set,2017_12_14_1607,
"[2.7, 2.7]",2,0,13,13,7,,,,,81,0,81,0,left,0.350248172559,IOA,f,20,60.0064902133,Set,2017_12_14_1607,
"[2.7, 2.7]",2,0,13,13,7,,,,,82,0,82,0,right,0.333579913771,IOA,f,20,60.0064902133,Set,2017_12_14_1607,
"[2.7, 2.7]",2,0,13,13,7,,,,,83,0,83,0,down,0.416896733848,IOA,f,20,60.0064902133,Set,2017_12_14_1607,
"[2.7, 2.7]",2,0,13,13,7,,,,,84,0,84,0,left,0.466860062574,IOA,f,20,60.0064902133,Set,2017_12_14_1607,
"[2.7, 2.7]",2,0,13,13,7,,,,,85,0,85,0,right,0.316896260156,IOA,f,20,60.0064902133,Set,2017_12_14_1607,
"[2.7, 2.7]",2,0,13,13,7,,,,,86,0,86,0,down,0.533554413618,IOA,f,20,60.0064902133,Set,2017_12_14_1607,
"[2.7, 2.7]",2,0,13,13,7,,,,,87,0,87,0,down,0.683630321975,IOA,f,20,60.0064902133,Set,2017_12_14_1607,
"[2.7, 2.7]",2,0,13,13,7,,,,,88,0,88,0,right,0.300225632942,IOA,f,20,60.0064902133,Set,2017_12_14_1607,
"[2.7, 2.7]",2,0,13,13,7,,,,,89,0,89,0,down,0.550234119837,IOA,f,20,60.0064902133,Set,2017_12_14_1607,
"[2.7, 2.7]",2,0,13,13,7,,,,,90,0,90,0,right,0.300237080381,IOA,f,20,60.0064902133,Set,2017_12_14_1607,
"[2.7, 2.7]",2,0,13,13,7,,,,,91,0,91,0,down,0.5835836638,IOA,f,20,60.0064902133,Set,2017_12_14_1607,
"[2.7, 2.7]",2,0,13,13,7,,,,,92,0,92,0,right,0.233566018956,IOA,f,20,60.0064902133,Set,2017_12_14_1607,
"[2.7, 2.7]",2,0,13,13,7,,,,,93,0,93,0,left,0.533562703145,IOA,f,20,60.0064902133,Set,2017_12_14_1607,
"[2.7, 2.7]",2,0,13,13,7,,,,,94,0,94,0,down,0.28357513743,IOA,f,20,60.0064902133,Set,2017_12_14_1607,
"[2.7, 2.7]",2,0,13,13,7,,,,,95,0,95,0,down,0.216917497128,IOA,f,20,60.0064902133,Set,2017_12_14_1607,
"[3.0, 3.0]",4,0,14,14,27,,,,,0,0,0,0,left,0.416906602331,IOA,f,20,60.0064902133,Set,2017_12_14_1607,
"[3.0, 3.0]",4,0,14,14,27,,,,,1,0,1,0,left,0.350261593689,IOA,f,20,60.0064902133,Set,2017_12_14_1607,
"[3.0, 3.0]",4,0,14,14,27,,,,,2,0,2,0,left,0.683570321613,IOA,f,20,60.0064902133,Set,2017_12_14_1607,
"[3.0, 3.0]",4,0,14,14,27,,,,,3,0,3,0,left,0.366907352334,IOA,f,20,60.0064902133,Set,2017_12_14_1607,
"[3.0, 3.0]",4,0,14,14,27,,,,,4,0,4,0,left,0.466907826019,IOA,f,20,60.0064902133,Set,2017_12_14_1607,
"[3.0, 3.0]",4,0,14,14,27,,,,,5,0,5,0,left,0.416897128584,IOA,f,20,60.0064902133,Set,2017_12_14_1607,
"[3.0, 3.0]",4,0,14,14,27,,,,,6,0,6,0,right,0.416888444321,IOA,f,20,60.0064902133,Set,2017_12_14_1607,
"[3.0, 3.0]",4,0,14,14,27,,,,,7,0,7,0,left,0.266907668127,IOA,f,20,60.0064902133,Set,2017_12_14_1607,
"[3.0, 3.0]",4,0,14,14,27,,,,,8,0,8,0,down,0.633586861186,IOA,f,20,60.0064902133,Set,2017_12_14_1607,
"[3.0, 3.0]",4,0,14,14,27,,,,,9,0,9,0,left,0.483559111017,IOA,f,20,60.0064902133,Set,2017_12_14_1607,
"[3.0, 3.0]",4,0,14,14,27,,,,,10,0,10,0,left,0.36689551016,IOA,f,20,60.0064902133,Set,2017_12_14_1607,
"[3.0, 3.0]",4,0,14,14,27,,,,,11,0,11,0,right,0.316928628781,IOA,f,20,60.0064902133,Set,2017_12_14_1607,
"[3.0, 3.0]",4,0,14,14,27,,,,,12,0,12,0,right,0.466880983753,IOA,f,20,60.0064902133,Set,2017_12_14_1607,
"[3.0, 3.0]",4,0,14,14,27,,,,,13,0,13,0,down,0.666927326143,IOA,f,20,60.0064902133,Set,2017_12_14_1607,
"[3.0, 3.0]",4,0,14,14,27,,,,,14,0,14,0,left,0.250233093509,IOA,f,20,60.0064902133,Set,2017_12_14_1607,
"[3.0, 3.0]",4,0,14,14,27,,,,,15,0,15,0,right,0.35023672512,IOA,f,20,60.0064902133,Set,2017_12_14_1607,
"[3.0, 3.0]",4,0,14,14,27,,,,,16,0,16,0,right,0.350248567287,IOA,f,20,60.0064902133,Set,2017_12_14_1607,
"[3.0, 3.0]",4,0,14,14,27,,,,,17,0,17,0,down,0.400248212027,IOA,f,20,60.0064902133,Set,2017_12_14_1607,
"[3.0, 3.0]",4,0,14,14,27,,,,,18,0,18,0,down,0.766905299686,IOA,f,20,60.0064902133,Set,2017_12_14_1607,
"[3.0, 3.0]",4,0,14,14,27,,,,,19,0,19,0,right,0.283573953217,IOA,f,20,60.0064902133,Set,2017_12_14_1607,
"[3.0, 3.0]",4,0,14,14,27,,,,,20,0,20,0,right,0.316911260248,IOA,f,20,60.0064902133,Set,2017_12_14_1607,
"[3.0, 3.0]",4,0,14,14,27,,,,,21,0,21,0,right,0.283561716293,IOA,f,20,60.0064902133,Set,2017_12_14_1607,
"[3.0, 3.0]",4,0,14,14,27,,,,,22,0,22,0,right,0.400055974023,IOA,f,20,60.0064902133,Set,2017_12_14_1607,
"[3.0, 3.0]",4,0,14,14,27,,,,,23,0,23,0,right,0.200224369779,IOA,f,20,60.0064902133,Set,2017_12_14_1607,
"[3.0, 3.0]",4,0,14,14,27,,,,,24,0,24,0,down,0.450242330415,IOA,f,20,60.0064902133,Set,2017_12_14_1607,
"[3.0, 3.0]",4,0,14,14,27,,,,,25,0,25,0,right,0.250245330433,IOA,f,20,60.0064902133,Set,2017_12_14_1607,
"[3.0, 3.0]",4,0,14,14,27,,,,,26,0,26,0,right,0.233591282267,IOA,f,20,60.0064902133,Set,2017_12_14_1607,
"[3.0, 3.0]",4,0,14,14,27,,,,,27,0,27,0,down,0.71690328652,IOA,f,20,60.0064902133,Set,2017_12_14_1607,
"[3.0, 3.0]",4,0,14,14,27,,,,,28,0,28,0,left,0.300236685645,IOA,f,20,60.0064902133,Set,2017_12_14_1607,
"[3.0, 3.0]",4,0,14,14,27,,,,,29,0,29,0,right,0.350233567202,IOA,f,20,60.0064902133,Set,2017_12_14_1607,
"[3.0, 3.0]",4,0,14,14,27,,,,,30,0,30,0,down,0.400255317334,IOA,f,20,60.0064902133,Set,2017_12_14_1607,
"[3.0, 3.0]",4,0,14,14,27,,,,,31,0,31,0,left,0.400240317242,IOA,f,20,60.0064902133,Set,2017_12_14_1607,
"[3.0, 3.0]",4,0,14,14,27,,,,,32,0,32,0,down,0.366889983809,IOA,f,20,60.0064902133,Set,2017_12_14_1607,
"[3.0, 3.0]",4,0,14,14,27,,,,,33,0,33,0,right,0.400233606677,IOA,f,20,60.0064902133,Set,2017_12_14_1607,
"[3.0, 3.0]",4,0,14,14,27,,,,,34,0,34,0,right,0.366896694373,IOA,f,20,60.0064902133,Set,2017_12_14_1607,
"[3.0, 3.0]",4,0,14,14,27,,,,,35,0,35,0,down,0.600235738268,IOA,f,20,60.0064902133,Set,2017_12_14_1607,
"[3.0, 3.0]",4,0,14,14,27,,,,,36,0,36,0,right,0.300215764466,IOA,f,20,60.0064902133,Set,2017_12_14_1607,
"[3.0, 3.0]",4,0,14,14,27,,,,,37,0,37,0,down,0.350215409198,IOA,f,20,60.0064902133,Set,2017_12_14_1607,
"[3.0, 3.0]",4,0,14,14,27,,,,,38,0,38,0,left,0.433574861112,IOA,f,20,60.0064902133,Set,2017_12_14_1607,
"[3.0, 3.0]",4,0,14,14,27,,,,,39,0,39,0,down,0.550237672491,IOA,f,20,60.0064902133,Set,2017_12_14_1607,
"[3.0, 3.0]",4,0,14,14,27,,,,,40,0,40,0,right,0.333562939981,IOA,f,20,60.0064902133,Set,2017_12_14_1607,
"[3.0, 3.0]",4,0,14,14,27,,,,,41,0,41,0,right,0.333558992599,IOA,f,20,60.0064902133,Set,2017_12_14_1607,
"[3.0, 3.0]",4,0,14,14,27,,,,,42,0,42,0,down,0.916910154985,IOA,f,20,60.0064902133,Set,2017_12_14_1607,
"[3.0, 3.0]",4,0,14,14,27,,,,,43,0,43,0,left,0.450337462571,IOA,f,20,60.0064902133,Set,2017_12_14_1607,
"[3.0, 3.0]",4,0,14,14,27,,,,,44,0,44,0,down,2.26686740472,IOA,f,20,60.0064902133,Set,2017_12_14_1607,
"[3.0, 3.0]",4,0,14,14,27,,,,,45,0,45,0,right,0.33356925581,IOA,f,20,60.0064902133,Set,2017_12_14_1607,
"[3.0, 3.0]",4,0,14,14,27,,,,,46,0,46,0,right,0.466994668648,IOA,f,20,60.0064902133,Set,2017_12_14_1607,
"[3.0, 3.0]",4,0,14,14,27,,,,,47,0,47,0,right,0.616909918135,IOA,f,20,60.0064902133,Set,2017_12_14_1607,
"[3.0, 3.0]",4,0,14,14,27,,,,,48,0,48,0,down,0.61690833918,IOA,f,20,60.0064902133,Set,2017_12_14_1607,
"[3.0, 3.0]",4,0,14,14,27,,,,,49,0,49,0,right,0.616898075961,IOA,f,20,60.0064902133,Set,2017_12_14_1607,
"[3.0, 3.0]",4,0,14,14,27,,,,,50,0,50,0,right,1.50022697506,IOA,f,20,60.0064902133,Set,2017_12_14_1607,
"[3.0, 3.0]",4,0,14,14,27,,,,,51,0,51,0,left,0.63357580849,IOA,f,20,60.0064902133,Set,2017_12_14_1607,
"[3.0, 3.0]",4,0,14,14,27,,,,,52,0,52,0,right,0.266914378692,IOA,f,20,60.0064902133,Set,2017_12_14_1607,
"[3.0, 3.0]",4,0,14,14,27,,,,,53,0,53,0,right,0.300247738342,IOA,f,20,60.0064902133,Set,2017_12_14_1607,
"[3.0, 3.0]",4,0,14,14,27,,,,,54,0,54,0,right,0.383571268983,IOA,f,20,60.0064902133,Set,2017_12_14_1607,
"[3.0, 3.0]",4,0,14,14,27,,,,,55,0,55,0,down,0.616895707528,IOA,f,20,60.0064902133,Set,2017_12_14_1607,
"[3.0, 3.0]",4,0,14,14,27,,,,,56,0,56,0,right,0.300233527727,IOA,f,20,60.0064902133,Set,2017_12_14_1607,
"[3.0, 3.0]",4,0,14,14,27,,,,,57,0,57,0,right,0.300297870221,IOA,f,20,60.0064902133,Set,2017_12_14_1607,
"[3.0, 3.0]",4,0,14,14,27,,,,,58,0,58,0,right,0.250236251435,IOA,f,20,60.0064902133,Set,2017_12_14_1607,
"[3.0, 3.0]",4,0,14,14,27,,,,,59,0,59,0,right,0.250244935698,IOA,f,20,60.0064902133,Set,2017_12_14_1607,
"[3.0, 3.0]",4,0,14,14,27,,,,,60,0,60,0,right,0.233560492605,IOA,f,20,60.0064902133,Set,2017_12_14_1607,
"[3.0, 3.0]",4,0,14,14,27,,,,,61,0,61,0,right,0.566732246007,IOA,f,20,60.0064902133,Set,2017_12_14_1607,
"[3.0, 3.0]",4,0,14,14,27,,,,,62,0,62,0,down,0.483568190022,IOA,f,20,60.0064902133,Set,2017_12_14_1607,
"[3.0, 3.0]",4,0,14,14,27,,,,,63,0,63,0,left,0.266892273299,IOA,f,20,60.0064902133,Set,2017_12_14_1607,
"[3.0, 3.0]",4,0,14,14,27,,,,,64,0,64,0,left,0.36690261546,IOA,f,20,60.0064902133,Set,2017_12_14_1607,
"[3.0, 3.0]",4,0,14,14,27,,,,,65,0,65,0,down,0.566905536536,IOA,f,20,60.0064902133,Set,2017_12_14_1607,
"[3.0, 3.0]",4,0,14,14,27,,,,,66,0,66,0,right,0.400217817107,IOA,f,20,60.0064902133,Set,2017_12_14_1607,
"[3.0, 3.0]",4,0,14,14,27,,,,,67,0,67,0,left,0.350256067344,IOA,f,20,60.0064902133,Set,2017_12_14_1607,
"[3.0, 3.0]",4,0,14,14,27,,,,,68,0,68,0,down,0.55023648827,IOA,f,20,60.0064902133,Set,2017_12_14_1607,
"[3.0, 3.0]",4,0,14,14,27,,,,,69,0,69,0,down,0.833560176812,IOA,f,20,60.0064902133,Set,2017_12_14_1607,
"[3.0, 3.0]",4,0,14,14,27,,,,,70,0,70,0,left,0.28350053171,IOA,f,20,60.0064902133,Set,2017_12_14_1607,
"[3.0, 3.0]",4,0,14,14,27,,,,,71,0,71,0,right,0.433576045325,IOA,f,20,60.0064902133,Set,2017_12_14_1607,
"[3.0, 3.0]",4,0,14,14,27,,,,,72,0,72,0,down,0.366889589073,IOA,f,20,60.0064902133,Set,2017_12_14_1607,
"[3.0, 3.0]",4,0,14,14,27,,,,,73,0,73,0,left,0.266902536518,IOA,f,20,60.0064902133,Set,2017_12_14_1607,
"[3.0, 3.0]",4,0,14,14,27,,,,,74,0,74,0,left,0.266897799644,IOA,f,20,60.0064902133,Set,2017_12_14_1607,
"[3.0, 3.0]",4,0,14,14,27,,,,,75,0,75,0,right,0.583564716311,IOA,f,20,60.0064902133,Set,2017_12_14_1607,
"[3.0, 3.0]",4,0,14,14,27,,,,,76,0,76,0,left,0.383572058461,IOA,f,20,60.0064902133,Set,2017_12_14_1607,
"[3.0, 3.0]",4,0,14,14,27,,,,,77,0,77,0,down,1.13356159788,IOA,f,20,60.0064902133,Set,2017_12_14_1607,
"[3.0, 3.0]",4,0,14,14,27,,,,,78,0,78,0,right,0.200073579392,IOA,f,20,60.0064902133,Set,2017_12_14_1607,
"[3.0, 3.0]",4,0,14,14,27,,,,,79,0,79,0,left,0.700245290958,IOA,f,20,60.0064902133,Set,2017_12_14_1607,
"[3.0, 3.0]",4,0,14,14,27,,,,,80,0,80,0,right,0.366944852562,IOA,f,20,60.0064902133,Set,2017_12_14_1607,
"[3.0, 3.0]",4,0,14,14,27,,,,,81,0,81,0,down,1.35023633038,IOA,f,20,60.0064902133,Set,2017_12_14_1607,
"[3.0, 3.0]",4,0,14,14,27,,,,,82,0,82,0,right,0.750227567165,IOA,f,20,60.0064902133,Set,2017_12_14_1607,
"[3.0, 3.0]",4,0,14,14,27,,,,,83,0,83,0,right,0.650233409309,IOA,f,20,60.0064902133,Set,2017_12_14_1607,
"[3.0, 3.0]",4,0,14,14,27,,,,,84,0,84,0,right,0.400234396155,IOA,f,20,60.0064902133,Set,2017_12_14_1607,
"[3.0, 3.0]",4,0,14,14,27,,,,,85,0,85,0,right,0.583558795224,IOA,f,20,60.0064902133,Set,2017_12_14_1607,
"[3.0, 3.0]",4,0,14,14,27,,,,,86,0,86,0,down,0.633579755879,IOA,f,20,60.0064902133,Set,2017_12_14_1607,
"[3.0, 3.0]",4,0,14,14,27,,,,,87,0,87,0,right,0.883578374291,IOA,f,20,60.0064902133,Set,2017_12_14_1607,
"[3.0, 3.0]",4,0,14,14,27,,,,,88,0,88,0,down,0.633567124227,IOA,f,20,60.0064902133,Set,2017_12_14_1607,
"[3.0, 3.0]",4,0,14,14,27,,,,,89,0,89,0,left,0.850226856637,IOA,f,20,60.0064902133,Set,2017_12_14_1607,
"[3.0, 3.0]",4,0,14,14,27,,,,,90,0,90,0,right,0.366880510068,IOA,f,20,60.0064902133,Set,2017_12_14_1607,
"[3.0, 3.0]",4,0,14,14,27,,,,,91,0,91,0,right,0.233565229479,IOA,f,20,60.0064902133,Set,2017_12_14_1607,
"[3.0, 3.0]",4,0,14,14,27,,,,,92,0,92,0,right,0.350245804126,IOA,f,20,60.0064902133,Set,2017_12_14_1607,
"[3.0, 3.0]",4,0,14,14,27,,,,,93,0,93,0,right,0.200236606695,IOA,f,20,60.0064902133,Set,2017_12_14_1607,
"[3.0, 3.0]",4,0,14,14,27,,,,,94,0,94,0,down,0.366914062906,IOA,f,20,60.0064902133,Set,2017_12_14_1607,
"[3.0, 3.0]",4,0,14,14,27,,,,,95,0,95,0,down,0.500215132881,IOA,f,20,60.0064902133,Set,2017_12_14_1607,
"[2.9, 2.9]",2,0,15,15,19,,,,,0,0,0,0,left,0.36692590508,IOA,f,20,60.0064902133,Set,2017_12_14_1607,
"[2.9, 2.9]",2,0,15,15,19,,,,,1,0,1,0,left,0.333561361025,IOA,f,20,60.0064902133,Set,2017_12_14_1607,
"[2.9, 2.9]",2,0,15,15,19,,,,,2,0,2,0,right,0.400247817292,IOA,f,20,60.0064902133,Set,2017_12_14_1607,
"[2.9, 2.9]",2,0,15,15,19,,,,,3,0,3,0,left,0.433551571499,IOA,f,20,60.0064902133,Set,2017_12_14_1607,
"[2.9, 2.9]",2,0,15,15,19,,,,,4,0,4,0,right,0.266901747033,IOA,f,20,60.0064902133,Set,2017_12_14_1607,
"[2.9, 2.9]",2,0,15,15,19,,,,,5,0,5,0,down,0.416906207589,IOA,f,20,60.0064902133,Set,2017_12_14_1607,
"[2.9, 2.9]",2,0,15,15,19,,,,,6,0,6,0,right,0.36687972059,IOA,f,20,60.0064902133,Set,2017_12_14_1607,
"[2.9, 2.9]",2,0,15,15,19,,,,,7,0,7,0,right,0.300231948771,IOA,f,20,60.0064902133,Set,2017_12_14_1607,
"[2.9, 2.9]",2,0,15,15,19,,,,,8,0,8,0,left,0.283571979518,IOA,f,20,60.0064902133,Set,2017_12_14_1607,
"[2.9, 2.9]",2,0,15,15,19,,,,,9,0,9,0,right,0.30022879086,IOA,f,20,60.0064902133,Set,2017_12_14_1607,
"[2.9, 2.9]",2,0,15,15,19,,,,,10,0,10,0,right,0.283567242644,IOA,f,20,60.0064902133,Set,2017_12_14_1607,
"[2.9, 2.9]",2,0,15,15,19,,,,,11,0,11,0,down,0.466892825927,IOA,f,20,60.0064902133,Set,2017_12_14_1607,
"[2.9, 2.9]",2,0,15,15,19,,,,,12,0,12,0,right,0.350245014641,IOA,f,20,60.0064902133,Set,2017_12_14_1607,
"[2.9, 2.9]",2,0,15,15,19,,,,,13,0,13,0,right,0.283585795383,IOA,f,20,60.0064902133,Set,2017_12_14_1607,
"[2.9, 2.9]",2,0,15,15,19,,,,,14,0,14,0,right,0.266908457605,IOA,f,20,60.0064902133,Set,2017_12_14_1607,
"[2.9, 2.9]",2,0,15,15,19,,,,,15,0,15,0,right,0.283558953117,IOA,f,20,60.0064902133,Set,2017_12_14_1607,
"[2.9, 2.9]",2,0,15,15,19,,,,,16,0,16,0,down,0.383583900642,IOA,f,20,60.0064902133,Set,2017_12_14_1607,
"[2.9, 2.9]",2,0,15,15,19,,,,,17,0,17,0,left,0.333567676862,IOA,f,20,60.0064902133,Set,2017_12_14_1607,
"[2.9, 2.9]",2,0,15,15,19,,,,,18,0,18,0,down,0.38356258472,IOA,f,20,60.0064902133,Set,2017_12_14_1607,
"[2.9, 2.9]",2,0,15,15,19,,,,,19,0,19,0,right,0.316892707509,IOA,f,20,60.0064902133,Set,2017_12_14_1607,
"[2.9, 2.9]",2,0,15,15,19,,,,,20,0,20,0,right,1.30021458025,IOA,f,20,60.0064902133,Set,2017_12_14_1607,
"[2.9, 2.9]",2,0,15,15,19,,,,,21,0,21,0,left,0.400218606585,IOA,f,20,60.0064902133,Set,2017_12_14_1607,
"[2.9, 2.9]",2,0,15,15,19,,,,,22,0,22,0,left,0.533574150577,IOA,f,20,60.0064902133,Set,2017_12_14_1607,
"[2.9, 2.9]",2,0,15,15,19,,,,,23,0,23,0,left,0.433563808416,IOA,f,20,60.0064902133,Set,2017_12_14_1607,
"[2.9, 2.9]",2,0,15,15,19,,,,,24,0,24,0,right,0.300239054079,IOA,f,20,60.0064902133,Set,2017_12_14_1607,
"[2.9, 2.9]",2,0,15,15,19,,,,,25,0,25,0,right,0.283555795213,IOA,f,20,60.0064902133,Set,2017_12_14_1607,
"[2.9, 2.9]",2,0,15,15,19,,,,,26,0,26,0,down,0.466907036542,IOA,f,20,60.0064902133,Set,2017_12_14_1607,
"[2.9, 2.9]",2,0,15,15,19,,,,,27,0,27,0,right,0.283583821692,IOA,f,20,60.0064902133,Set,2017_12_14_1607,
"[2.9, 2.9]",2,0,15,15,19,,,,,28,0,28,0,left,0.366882089023,IOA,f,20,60.0064902133,Set,2017_12_14_1607,
"[2.9, 2.9]",2,0,15,15,19,,,,,29,0,29,0,down,0.50021908027,IOA,f,20,60.0064902133,Set,2017_12_14_1607,
"[2.9, 2.9]",2,0,15,15,19,,,,,30,0,30,0,right,0.400245448851,IOA,f,20,60.0064902133,Set,2017_12_14_1607,
"[2.9, 2.9]",2,0,15,15,19,,,,,31,0,31,0,right,0.566900799662,IOA,f,20,60.0064902133,Set,2017_12_14_1607,
"[2.9, 2.9]",2,0,15,15,19,,,,,32,0,32,0,right,0.350223698719,IOA,f,20,60.0064902133,Set,2017_12_14_1607,
"[2.9, 2.9]",2,0,15,15,19,,,,,33,0,33,0,left,0.383564163683,IOA,f,20,60.0064902133,Set,2017_12_14_1607,
"[2.9, 2.9]",2,0,15,15,19,,,,,34,0,34,0,left,0.683557295211,IOA,f,20,60.0064902133,Set,2017_12_14_1607,
"[2.9, 2.9]",2,0,15,15,19,,,,,35,0,35,0,left,0.383581926944,IOA,f,20,60.0064902133,Set,2017_12_14_1607,
"[2.9, 2.9]",2,0,15,15,19,,,,,36,0,36,0,right,0.333562939981,IOA,f,20,60.0064902133,Set,2017_12_14_1607,
"[2.9, 2.9]",2,0,15,15,19,,,,,37,0,37,0,left,0.366891957507,IOA,f,20,60.0064902133,Set,2017_12_14_1607,
"[2.9, 2.9]",2,0,15,15,19,,,,,38,0,38,0,left,0.400242685682,IOA,f,20,60.0064902133,Set,2017_12_14_1607,
"[2.9, 2.9]",2,0,15,15,19,,,,,39,0,39,0,left,0.400248212027,IOA,f,20,60.0064902133,Set,2017_12_14_1607,
"[2.9, 2.9]",2,0,15,15,19,,,,,40,0,40,0,down,0.550233330359,IOA,f,20,60.0064902133,Set,2017_12_14_1607,
"[2.9, 2.9]",2,0,15,15,19,,,,,41,0,41,0,left,0.633559229442,IOA,f,20,60.0064902133,Set,2017_12_14_1607,
"[2.9, 2.9]",2,0,15,15,19,,,,,42,0,42,0,right,0.383565347896,IOA,f,20,60.0064902133,Set,2017_12_14_1607,
"[2.9, 2.9]",2,0,15,15,19,,,,,43,0,43,0,right,0.416902260193,IOA,f,20,60.0064902133,Set,2017_12_14_1607,
"[2.9, 2.9]",2,0,15,15,19,,,,,44,0,44,0,right,0.383580347989,IOA,f,20,60.0064902133,Set,2017_12_14_1607,
"[2.9, 2.9]",2,0,15,15,19,,,,,45,0,45,0,left,0.500233685627,IOA,f,20,60.0064902133,Set,2017_12_14_1607,
"[2.9, 2.9]",2,0,15,15,19,,,,,46,0,46,0,left,0.400237948808,IOA,f,20,60.0064902133,Set,2017_12_14_1607,
"[2.9, 2.9]",2,0,15,15,19,,,,,47,0,47,0,right,0.300239054079,IOA,f,20,60.0064902133,Set,2017_12_14_1607,
"[2.9, 2.9]",2,0,15,15,19,,,,,48,0,48,0,right,0.633568703175,IOA,f,20,60.0064902133,Set,2017_12_14_1607,
"[2.9, 2.9]",2,0,15,15,19,,,,,49,0,49,0,right,0.350243040943,IOA,f,20,60.0064902133,Set,2017_12_14_1607,
"[2.9, 2.9]",2,0,15,15,19,,,,,50,0,50,0,right,0.583566295267,IOA,f,20,60.0064902133,Set,2017_12_14_1607,
"[2.9, 2.9]",2,0,15,15,19,,,,,51,0,51,0,right,0.250276514831,IOA,f,20,60.0064902133,Set,2017_12_14_1607,
"[2.9, 2.9]",2,0,15,15,19,,,,,52,0,52,0,right,0.166905220744,IOA,f,20,60.0064902133,Set,2017_12_14_1607,
"[2.9, 2.9]",2,0,15,15,19,,,,,53,0,53,0,right,0.283574347952,IOA,f,20,60.0064902133,Set,2017_12_14_1607,
"[2.9, 2.9]",2,0,15,15,19,,,,,54,0,54,0,right,0.216908023394,IOA,f,20,60.0064902133,Set,2017_12_14_1607,
"[2.9, 2.9]",2,0,15,15,19,,,,,55,0,55,0,left,0.383566926859,IOA,f,20,60.0064902133,Set,2017_12_14_1607,
"[2.9, 2.9]",2,0,15,15,19,,,,,56,0,56,0,left,0.383576795335,IOA,f,20,60.0064902133,Set,2017_12_14_1607,
"[2.9, 2.9]",2,0,15,15,19,,,,,57,0,57,0,left,0.366899062814,IOA,f,20,60.0064902133,Set,2017_12_14_1607,
"[2.9, 2.9]",2,0,15,15,19,,,,,58,0,58,0,right,0.316882049548,IOA,f,20,60.0064902133,Set,2017_12_14_1607,
"[2.9, 2.9]",2,0,15,15,19,,,,,59,0,59,0,left,0.266905694429,IOA,f,20,60.0064902133,Set,2017_12_14_1607,
"[2.9, 2.9]",2,0,15,15,19,,,,,60,0,60,0,right,0.366900641769,IOA,f,20,60.0064902133,Set,2017_12_14_1607,
"[2.9, 2.9]",2,0,15,15,19,,,,,61,0,61,0,left,0.300224053994,IOA,f,20,60.0064902133,Set,2017_12_14_1607,
"[2.9, 2.9]",2,0,15,15,19,,,,,62,0,62,0,right,0.383576005857,IOA,f,20,60.0064902133,Set,2017_12_14_1607,
"[2.9, 2.9]",2,0,15,15,19,,,,,63,0,63,0,left,0.33354517672,IOA,f,20,60.0064902133,Set,2017_12_14_1607,
"[2.9, 2.9]",2,0,15,15,19,,,,,64,0,64,0,left,0.5502206987,IOA,f,20,60.0064902133,Set,2017_12_14_1607,
"[2.9, 2.9]",2,0,15,15,19,,,,,65,0,65,0,left,0.400247817292,IOA,f,20,60.0064902133,Set,2017_12_14_1607,
"[2.9, 2.9]",2,0,15,15,19,,,,,66,0,66,0,right,0.250246119911,IOA,f,20,60.0064902133,Set,2017_12_14_1607,
"[2.9, 2.9]",2,0,15,15,19,,,,,67,0,67,0,right,0.283551058332,IOA,f,20,60.0064902133,Set,2017_12_14_1607,
"[2.9, 2.9]",2,0,15,15,19,,,,,68,0,68,0,right,0.116920970839,IOA,f,20,60.0064902133,Set,2017_12_14_1607,
"[2.9, 2.9]",2,0,15,15,19,,,,,69,0,69,0,left,0.383557847854,IOA,f,20,60.0064902133,Set,2017_12_14_1607,
"[2.9, 2.9]",2,0,15,15,19,,,,,70,0,70,0,left,0.366900247034,IOA,f,20,60.0064902133,Set,2017_12_14_1607,
"[2.9, 2.9]",2,0,15,15,19,,,,,71,0,71,0,left,0.266916747125,IOA,f,20,60.0064902133,Set,2017_12_14_1607,
"[2.9, 2.9]",2,0,15,15,19,,,,,72,0,72,0,left,0.150239330396,IOA,f,20,60.0064902133,Set,2017_12_14_1607,
"[2.9, 2.9]",2,0,15,15,19,,,,,73,0,73,0,right,0.116898470704,IOA,f,20,60.0064902133,Set,2017_12_14_1607,
"[2.9, 2.9]",2,0,15,15,19,,,,,74,0,74,0,left,0.501156980681,IOA,f,20,60.0064902133,Set,2017_12_14_1607,
"[2.9, 2.9]",2,0,15,15,19,,,,,75,0,75,0,down,0.40024347516,IOA,f,20,60.0064902133,Set,2017_12_14_1607,
"[2.9, 2.9]",2,0,15,15,19,,,,,76,0,76,0,left,0.350231198761,IOA,f,20,60.0064902133,Set,2017_12_14_1607,
"[2.9, 2.9]",2,0,15,15,19,,,,,77,0,77,0,left,0.216922234002,IOA,f,20,60.0064902133,Set,2017_12_14_1607,
"[2.9, 2.9]",2,0,15,15,19,,,,,78,0,78,0,left,0.133562782095,IOA,f,20,60.0064902133,Set,2017_12_14_1607,
"[2.9, 2.9]",2,0,15,15,19,,,,,79,0,79,0,right,0.550244383063,IOA,f,20,60.0064902133,Set,2017_12_14_1607,
"[2.9, 2.9]",2,0,15,15,19,,,,,80,0,80,0,down,0.116887418,IOA,f,20,60.0064902133,Set,2017_12_14_1607,
"[2.9, 2.9]",2,0,15,15,19,,,,,81,0,81,0,right,0.500232501407,IOA,f,20,60.0064902133,Set,2017_12_14_1607,
"[2.9, 2.9]",2,0,15,15,19,,,,,82,0,82,0,right,0.250230330341,IOA,f,20,60.0064902133,Set,2017_12_14_1607,
"[2.9, 2.9]",2,0,15,15,19,,,,,83,0,83,0,right,0.233554966253,IOA,f,20,60.0064902133,Set,2017_12_14_1607,
"[2.9, 2.9]",2,0,15,15,19,,,,,84,0,84,0,right,0.416907391809,IOA,f,20,60.0064902133,Set,2017_12_14_1607,
"[2.9, 2.9]",2,0,15,15,19,,,,,85,0,85,0,right,0.283573163731,IOA,f,20,60.0064902133,Set,2017_12_14_1607,
"[2.9, 2.9]",2,0,15,15,19,,,,,86,0,86,0,right,0.266898983864,IOA,f,20,60.0064902133,Set,2017_12_14_1607,
"[2.9, 2.9]",2,0,15,15,19,,,,,87,0,87,0,right,0.0669059312713,IOA,f,20,60.0064902133,Set,2017_12_14_1607,
"[2.9, 2.9]",2,0,15,15,19,,,,,88,0,88,0,left,0.333576755853,IOA,f,20,60.0064902133,Set,2017_12_14_1607,
"[2.9, 2.9]",2,0,15,15,19,,,,,89,0,89,0,down,0.400231238244,IOA,f,20,60.0064902133,Set,2017_12_14_1607,
"[2.9, 2.9]",2,0,15,15,19,,,,,90,0,90,0,left,0.416918444505,IOA,f,20,60.0064902133,Set,2017_12_14_1607,
"[2.9, 2.9]",2,0,15,15,19,,,,,91,0,91,0,left,0.400009789533,IOA,f,20,60.0064902133,Set,2017_12_14_1607,
"[2.9, 2.9]",2,0,15,15,19,,,,,92,0,92,0,left,0.316738759204,IOA,f,20,60.0064902133,Set,2017_12_14_1607,
"[2.9, 2.9]",2,0,15,15,19,,,,,93,0,93,0,left,0.300241817255,IOA,f,20,60.0064902133,Set,2017_12_14_1607,
"[2.9, 2.9]",2,0,15,15,19,,,,,94,0,94,0,left,0.100222317138,IOA,f,20,60.0064902133,Set,2017_12_14_1607,
"[2.9, 2.9]",2,0,15,15,19,,,,,95,0,95,0,left,0.200234633005,IOA,f,20,60.0064902133,Set,2017_12_14_1607,
"[2.9, 2.9]",2,0,15,15,19,,,,,96,0,96,0,left,0.0669181681878,IOA,f,20,60.0064902133,Set,2017_12_14_1607,
"[2.9, 2.9]",2,0,15,15,19,,,,,97,0,97,0,left,0.266903325995,IOA,f,20,60.0064902133,Set,2017_12_14_1607,
"[2.9, 2.9]",2,0,15,15,19,,,,,98,0,98,0,right,0.150275646403,IOA,f,20,60.0064902133,Set,2017_12_14_1607,
"[2.9, 2.9]",2,0,15,15,19,,,,,99,0,99,0,left,0.21690960235,IOA,f,20,60.0064902133,Set,2017_12_14_1607,
"[2.9, 2.9]",1,0,16,16,18,,,,,0,0,0,0,right,0.383574426894,IOA,f,20,60.0064902133,Set,2017_12_14_1607,
"[2.9, 2.9]",1,0,16,16,18,,,,,1,0,1,0,right,0.183580584831,IOA,f,20,60.0064902133,Set,2017_12_14_1607,
"[2.9, 2.9]",1,0,16,16,18,,,,,2,0,2,0,right,0.100274817458,IOA,f,20,60.0064902133,Set,2017_12_14_1607,
"[2.9, 2.9]",1,0,16,16,18,,,,,3,0,3,0,left,0.350240672509,IOA,f,20,60.0064902133,Set,2017_12_14_1607,
"[2.9, 2.9]",1,0,16,16,18,,,,,4,0,4,0,right,0.216898154911,IOA,f,20,60.0064902133,Set,2017_12_14_1607,
"[2.9, 2.9]",1,0,16,16,18,,,,,5,0,5,0,left,0.300220896068,IOA,f,20,60.0064902133,Set,2017_12_14_1607,
"[2.9, 2.9]",1,0,16,16,18,,,,,6,0,6,0,right,0.150237751433,IOA,f,20,60.0064902133,Set,2017_12_14_1607,
"[2.9, 2.9]",1,0,16,16,18,,,,,7,0,7,0,left,0.31690928655,IOA,f,20,60.0064902133,Set,2017_12_14_1607,
"[2.9, 2.9]",1,0,16,16,18,,,,,8,0,8,0,right,0.233577466388,IOA,f,20,60.0064902133,Set,2017_12_14_1607,
"[2.9, 2.9]",1,0,16,16,18,,,,,9,0,9,0,left,0.283582637472,IOA,f,20,60.0064902133,Set,2017_12_14_1607,
"[2.9, 2.9]",1,0,16,16,18,,,,,10,0,10,0,right,0.300250106775,IOA,f,20,60.0064902133,Set,2017_12_14_1607,
"[2.9, 2.9]",1,0,16,16,18,,,,,11,0,11,0,left,0.300236290903,IOA,f,20,60.0064902133,Set,2017_12_14_1607,
"[2.9, 2.9]",1,0,16,16,18,,,,,12,0,12,0,down,0.483575295322,IOA,f,20,60.0064902133,Set,2017_12_14_1607,
"[2.9, 2.9]",1,0,16,16,18,,,,,13,0,13,0,left,0.233570361081,IOA,f,20,60.0064902133,Set,2017_12_14_1607,
"[2.9, 2.9]",1,0,16,16,18,,,,,14,0,14,0,right,0.316905733904,IOA,f,20,60.0064902133,Set,2017_12_14_1607,
"[2.9, 2.9]",1,0,16,16,18,,,,,15,0,15,0,down,0.48358358485,IOA,f,20,60.0064902133,Set,2017_12_14_1607,
"[2.9, 2.9]",1,0,16,16,18,,,,,16,0,16,0,left,0.350265146342,IOA,f,20,60.0064902133,Set,2017_12_14_1607,
"[2.9, 2.9]",1,0,16,16,18,,,,,17,0,17,0,right,0.416903839156,IOA,f,20,60.0064902133,Set,2017_12_14_1607,
"[2.9, 2.9]",1,0,16,16,18,,,,,18,0,18,0,right,0.300205895983,IOA,f,20,60.0064902133,Set,2017_12_14_1607,
"[2.9, 2.9]",1,0,16,16,18,,,,,19,0,19,0,right,0.350277778001,IOA,f,20,60.0064902133,Set,2017_12_14_1607,
"[2.9, 2.9]",1,0,16,16,18,,,,,20,0,20,0,left,0.316917576085,IOA,f,20,60.0064902133,Set,2017_12_14_1607,
"[2.9, 2.9]",1,0,16,16,18,,,,,21,0,21,0,left,0.666892194349,IOA,f,20,60.0064902133,Set,2017_12_14_1607,
"[2.9, 2.9]",1,0,16,16,18,,,,,22,0,22,0,right,0.23357786113,IOA,f,20,60.0064902133,Set,2017_12_14_1607,
"[2.9, 2.9]",1,0,16,16,18,,,,,23,0,23,0,down,0.950227725058,IOA,f,20,60.0064902133,Set,2017_12_14_1607,
"[2.9, 2.9]",1,0,16,16,18,,,,,24,0,24,0,right,0.233569966345,IOA,f,20,60.0064902133,Set,2017_12_14_1607,
"[2.9, 2.9]",1,0,16,16,18,,,,,25,0,25,0,right,0.38355311098,IOA,f,20,60.0064902133,Set,2017_12_14_1607,
"[2.9, 2.9]",1,0,16,16,18,,,,,26,0,26,0,left,0.300235106683,IOA,f,20,60.0064902133,Set,2017_12_14_1607,
"[2.9, 2.9]",1,0,16,16,18,,,,,27,0,27,0,right,0.300238264601,IOA,f,20,60.0064902133,Set,2017_12_14_1607,
"[2.9, 2.9]",1,0,16,16,18,,,,,28,0,28,0,right,0.433562624195,IOA,f,20,60.0064902133,Set,2017_12_14_1607,
"[2.9, 2.9]",1,0,16,16,18,,,,,29,0,29,0,left,0.416881733763,IOA,f,20,60.0064902133,Set,2017_12_14_1607,
"[2.9, 2.9]",1,0,16,16,18,,,,,30,0,30,0,right,0.300254843649,IOA,f,20,60.0064902133,Set,2017_12_14_1607,
"[2.9, 2.9]",1,0,16,16,18,,,,,31,0,31,0,right,0.300226817162,IOA,f,20,60.0064902133,Set,2017_12_14_1607,
"[2.9, 2.9]",1,0,16,16,18,,,,,32,0,32,0,right,0.300237869866,IOA,f,20,60.0064902133,Set,2017_12_14_1607,
"[2.9, 2.9]",1,0,16,16,18,,,,,33,0,33,0,right,0.333587019079,IOA,f,20,60.0064902133,Set,2017_12_14_1607,
"[2.9, 2.9]",1,0,16,16,18,,,,,34,0,34,0,right,0.450224567154,IOA,f,20,60.0064902133,Set,2017_12_14_1607,
"[2.9, 2.9]",1,0,16,16,18,,,,,35,0,35,0,right,0.366938931475,IOA,f,20,60.0064902133,Set,2017_12_14_1607,
"[2.9, 2.9]",1,0,16,16,18,,,,,36,0,36,0,right,0.366901036505,IOA,f,20,60.0064902133,Set,2017_12_14_1607,
"[2.9, 2.9]",1,0,16,16,18,,,,,37,0,37,0,right,0.350252514691,IOA,f,20,60.0064902133,Set,2017_12_14_1607,
"[2.9, 2.9]",1,0,16,16,18,,,,,38,0,38,0,right,0.383412583811,IOA,f,20,60.0064902133,Set,2017_12_14_1607,
"[2.9, 2.9]",1,0,16,16,18,,,,,39,0,39,0,right,0.383582716422,IOA,f,20,60.0064902133,Set,2017_12_14_1607,
"[2.9, 2.9]",1,0,16,16,18,,,,,40,0,40,0,right,0.366914062899,IOA,f,20,60.0064902133,Set,2017_12_14_1607,
"[2.9, 2.9]",1,0,16,16,18,,,,,41,0,41,0,right,0.300226817162,IOA,f,20,60.0064902133,Set,2017_12_14_1607,
"[2.9, 2.9]",1,0,16,16,18,,,,,42,0,42,0,right,0.283689217067,IOA,f,20,60.0064902133,Set,2017_12_14_1607,
"[2.9, 2.9]",1,0,16,16,18,,,,,43,0,43,0,right,0.200238580386,IOA,f,20,60.0064902133,Set,2017_12_14_1607,
"[2.9, 2.9]",1,0,16,16,18,,,,,44,0,44,0,right,0.40024465938,IOA,f,20,60.0064902133,Set,2017_12_14_1607,
"[2.9, 2.9]",1,0,16,16,18,,,,,45,0,45,0,right,0.466903089145,IOA,f,20,60.0064902133,Set,2017_12_14_1607,
"[2.9, 2.9]",1,0,16,16,18,,,,,46,0,46,0,right,0.700226343477,IOA,f,20,60.0064902133,Set,2017_12_14_1607,
"[2.9, 2.9]",1,0,16,16,18,,,,,47,0,47,0,left,0.316930997215,IOA,f,20,60.0064902133,Set,2017_12_14_1607,
"[2.9, 2.9]",1,0,16,16,18,,,,,48,0,48,0,right,0.266919510301,IOA,f,20,60.0064902133,Set,2017_12_14_1607,
"[2.9, 2.9]",1,0,16,16,18,,,,,49,0,49,0,right,0.350202777547,IOA,f,20,60.0064902133,Set,2017_12_14_1607,
"[2.9, 2.9]",1,0,16,16,18,,,,,50,0,50,0,down,0.483555558363,IOA,f,20,60.0064902133,Set,2017_12_14_1607,
"[2.9, 2.9]",1,0,16,16,18,,,,,51,0,51,0,right,0.36690893129,IOA,f,20,60.0064902133,Set,2017_12_14_1607,
"[2.9, 2.9]",1,0,16,16,18,,,,,52,0,52,0,right,0.300225632942,IOA,f,20,60.0064902133,Set,2017_12_14_1607,
"[2.9, 2.9]",1,0,16,16,18,,,,,53,0,53,0,down,0.750237435648,IOA,f,20,60.0064902133,Set,2017_12_14_1607,
"[2.9, 2.9]",1,0,16,16,18,,,,,54,0,54,0,left,0.416918049763,IOA,f,20,60.0064902133,Set,2017_12_14_1607,
"[2.9, 2.9]",1,0,16,16,18,,,,,55,0,55,0,right,0.316882839033,IOA,f,20,60.0064902133,Set,2017_12_14_1607,
"[2.9, 2.9]",1,0,16,16,18,,,,,56,0,56,0,right,0.283586979611,IOA,f,20,60.0064902133,Set,2017_12_14_1607,
"[2.9, 2.9]",1,0,16,16,18,,,,,57,0,57,0,right,0.333568071597,IOA,f,20,60.0064902133,Set,2017_12_14_1607,
"[2.9, 2.9]",1,0,16,16,18,,,,,58,0,58,0,right,0.350247383081,IOA,f,20,60.0064902133,Set,2017_12_14_1607,
"[2.9, 2.9]",1,0,16,16,18,,,,,59,0,59,0,left,0.433587098029,IOA,f,20,60.0064902133,Set,2017_12_14_1607,
"[2.9, 2.9]",1,0,16,16,18,,,,,60,0,60,0,right,0.466902299675,IOA,f,20,60.0064902133,Set,2017_12_14_1607,
"[2.9, 2.9]",1,0,16,16,18,,,,,61,0,61,0,left,0.50022026449,IOA,f,20,60.0064902133,Set,2017_12_14_1607,
"[2.9, 2.9]",1,0,16,16,18,,,,,62,0,62,0,right,0.633556861001,IOA,f,20,60.0064902133,Set,2017_12_14_1607,
"[2.9, 2.9]",1,0,16,16,18,,,,,63,0,63,0,right,0.483576479535,IOA,f,20,60.0064902133,Set,2017_12_14_1607,
"[2.9, 2.9]",1,0,16,16,18,,,,,64,0,64,0,right,0.683561637343,IOA,f,20,60.0064902133,Set,2017_12_14_1607,
"[2.9, 2.9]",1,0,16,16,18,,,,,65,0,65,0,right,0.38356890055,IOA,f,20,60.0064902133,Set,2017_12_14_1607,
"[2.9, 2.9]",1,0,16,16,18,,,,,66,0,66,0,left,0.433566966327,IOA,f,20,60.0064902133,Set,2017_12_14_1607,
"[2.9, 2.9]",1,0,16,16,18,,,,,67,0,67,0,down,0.600235343525,IOA,f,20,60.0064902133,Set,2017_12_14_1607,
"[2.9, 2.9]",1,0,16,16,18,,,,,68,0,68,0,left,0.366903010203,IOA,f,20,60.0064902133,Set,2017_12_14_1607,
"[2.9, 2.9]",1,0,16,16,18,,,,,69,0,69,0,left,0.333579519029,IOA,f,20,60.0064902133,Set,2017_12_14_1607,
"[2.9, 2.9]",1,0,16,16,18,,,,,70,0,70,0,right,0.30023589616,IOA,f,20,60.0064902133,Set,2017_12_14_1607,
"[2.9, 2.9]",1,0,16,16,18,,,,,71,0,71,0,left,0.316907312859,IOA,f,20,60.0064902133,Set,2017_12_14_1607,
"[2.9, 2.9]",1,0,16,16,18,,,,,72,0,72,0,right,0.26697714223,IOA,f,20,60.0064902133,Set,2017_12_14_1607,
"[2.9, 2.9]",1,0,16,16,18,,,,,73,0,73,0,right,0.350064618811,IOA,f,20,60.0064902133,Set,2017_12_14_1607,
"[2.9, 2.9]",1,0,16,16,18,,,,,74,0,74,0,right,0.300253264693,IOA,f,20,60.0064902133,Set,2017_12_14_1607,
"[2.9, 2.9]",1,0,16,16,18,,,,,75,0,75,0,right,0.300245764643,IOA,f,20,60.0064902133,Set,2017_12_14_1607,
"[2.9, 2.9]",1,0,16,16,18,,,,,76,0,76,0,right,0.583561953135,IOA,f,20,60.0064902133,Set,2017_12_14_1607,
"[2.9, 2.9]",1,0,16,16,18,,,,,77,0,77,0,right,0.266906878649,IOA,f,20,60.0064902133,Set,2017_12_14_1607,
"[2.9, 2.9]",1,0,16,16,18,,,,,78,0,78,0,right,0.200231475086,IOA,f,20,60.0064902133,Set,2017_12_14_1607,
"[2.9, 2.9]",1,0,16,16,18,,,,,79,0,79,0,right,0.200287922795,IOA,f,20,60.0064902133,Set,2017_12_14_1607,
"[2.9, 2.9]",1,0,16,16,18,,,,,80,0,80,0,left,0.350072513596,IOA,f,20,60.0064902133,Set,2017_12_14_1607,
"[2.9, 2.9]",1,0,16,16,18,,,,,81,0,81,0,down,0.400236764595,IOA,f,20,60.0064902133,Set,2017_12_14_1607,
"[2.9, 2.9]",1,0,16,16,18,,,,,82,0,82,0,left,0.50023605406,IOA,f,20,60.0064902133,Set,2017_12_14_1607,
"[2.9, 2.9]",1,0,16,16,18,,,,,83,0,83,0,right,0.316899812817,IOA,f,20,60.0064902133,Set,2017_12_14_1607,
"[2.9, 2.9]",1,0,16,16,18,,,,,84,0,84,0,down,0.400225711892,IOA,f,20,60.0064902133,Set,2017_12_14_1607,
"[2.9, 2.9]",1,0,16,16,18,,,,,85,0,85,0,right,0.466906247064,IOA,f,20,60.0064902133,Set,2017_12_14_1607,
"[2.9, 2.9]",1,0,16,16,18,,,,,86,0,86,0,right,0.350237119856,IOA,f,20,60.0064902133,Set,2017_12_14_1607,
"[2.9, 2.9]",1,0,16,16,18,,,,,87,0,87,0,left,0.416743180293,IOA,f,20,60.0064902133,Set,2017_12_14_1607,
"[2.9, 2.9]",1,0,16,16,18,,,,,88,0,88,0,right,0.283573953209,IOA,f,20,60.0064902133,Set,2017_12_14_1607,
"[2.9, 2.9]",1,0,16,16,18,,,,,89,0,89,0,down,0.71690841813,IOA,f,20,60.0064902133,Set,2017_12_14_1607,
"[2.9, 2.9]",1,0,16,16,18,,,,,90,0,90,0,down,0.516919707668,IOA,f,20,60.0064902133,Set,2017_12_14_1607,
"[2.9, 2.9]",1,0,16,16,18,,,,,91,0,91,0,right,0.416910154985,IOA,f,20,60.0064902133,Set,2017_12_14_1607,
"[2.9, 2.9]",1,0,16,16,18,,,,,92,0,92,0,down,0.950242330415,IOA,f,20,60.0064902133,Set,2017_12_14_1607,
"[2.9, 2.9]",1,0,16,16,18,,,,,93,0,93,0,right,0.233569176868,IOA,f,20,60.0064902133,Set,2017_12_14_1607,
"[2.9, 2.9]",1,0,16,16,18,,,,,94,0,94,0,down,0.866941299908,IOA,f,20,60.0064902133,Set,2017_12_14_1607,
"[2.9, 2.9]",1,0,16,16,18,,,,,95,0,95,0,right,0.333581492734,IOA,f,20,60.0064902133,Set,2017_12_14_1607,
"[2.9, 2.9]",1,0,16,16,18,,,,,96,0,96,0,right,0.466899931242,IOA,f,20,60.0064902133,Set,2017_12_14_1607,
"[2.9, 2.9]",1,0,16,16,18,,,,,97,0,97,0,right,0.500249080455,IOA,f,20,60.0064902133,Set,2017_12_14_1607,
"[2.9, 2.9]",1,0,16,16,18,,,,,98,0,98,0,right,0.416898707546,IOA,f,20,60.0064902133,Set,2017_12_14_1607,
"[2.9, 2.9]",1,0,16,16,18,,,,,99,0,99,0,right,0.500224606621,IOA,f,20,60.0064902133,Set,2017_12_14_1607,
"[2.8, 2.8]",4,0,17,17,15,,,,,0,0,0,0,left,0.283573163731,IOA,f,20,60.0064902133,Set,2017_12_14_1607,
"[2.8, 2.8]",4,0,17,17,15,,,,,1,0,1,0,left,0.350235146158,IOA,f,20,60.0064902133,Set,2017_12_14_1607,
"[2.8, 2.8]",4,0,17,17,15,,,,,2,0,2,0,right,0.216906839174,IOA,f,20,60.0064902133,Set,2017_12_14_1607,
"[2.8, 2.8]",4,0,17,17,15,,,,,3,0,3,0,left,0.250240988302,IOA,f,20,60.0064902133,Set,2017_12_14_1607,
"[2.8, 2.8]",4,0,17,17,15,,,,,4,0,4,0,left,0.200246869914,IOA,f,20,60.0064902133,Set,2017_12_14_1607,
