size,n,trials_2.thisRepN,trials_2.thisTrialN,trials_2.thisN,trials_2.thisIndex,trials.thisRepN,trials.thisTrialN,trials.thisN,trials.thisIndex,trials_3.thisRepN,trials_3.thisTrialN,trials_3.thisN,trials_3.thisIndex,answer.keys,answer.rt,participant,gender,age,frameRate,expName,date,
"[3.0, 3.0]",1,0,0,0,24,,,,,0,0,0,0,down,5.51693944464,KAR,f,20,60.0013737241,Set,2017_12_15_1359,
"[3.0, 3.0]",1,0,0,0,24,,,,,1,0,1,0,down,1.43358946647,KAR,f,20,60.0013737241,Set,2017_12_15_1359,
"[2.7, 2.7]",6,0,1,1,11,,,,,0,0,0,0,down,3.51687312842,KAR,f,20,60.0013737241,Set,2017_12_15_1359,
"[2.7, 2.7]",6,0,1,1,11,,,,,1,0,1,0,down,0.900243869895,KAR,f,20,60.0013737241,Set,2017_12_15_1359,
"[2.8, 2.8]",1,0,2,2,12,,,,,0,0,0,0,right,1.15023340931,KAR,f,20,60.0013737241,Set,2017_12_15_1359,
"[2.8, 2.8]",1,0,2,2,12,,,,,1,0,1,0,down,0.750230330363,KAR,f,20,60.0013737241,Set,2017_12_15_1359,
"[2.8, 2.8]",1,0,2,2,12,,,,,2,0,2,0,down,0.433564992622,KAR,f,20,60.0013737241,Set,2017_12_15_1359,
"[2.8, 2.8]",4,0,3,3,15,,,,,0,0,0,0,down,0.50024236989,KAR,f,20,60.0013737241,Set,2017_12_15_1359,
"[2.8, 2.8]",4,0,3,3,15,,,,,1,0,1,0,down,0.566905931279,KAR,f,20,60.0013737241,Set,2017_12_15_1359,
"[3.0, 3.0]",2,0,4,4,25,,,,,0,0,0,0,down,0.56690908919,KAR,f,20,60.0013737241,Set,2017_12_15_1359,
"[3.0, 3.0]",2,0,4,4,25,,,,,1,0,1,0,down,0.516903523356,KAR,f,20,60.0013737241,Set,2017_12_15_1359,
"[2.9, 2.9]",5,0,5,5,22,,,,,0,0,0,0,down,0.366901036497,KAR,f,20,60.0013737241,Set,2017_12_15_1359,
"[2.9, 2.9]",5,0,5,5,22,,,,,1,0,1,0,down,0.483576479543,KAR,f,20,60.0013737241,Set,2017_12_15_1359,
"[3.0, 3.0]",6,0,6,6,29,,,,,0,0,0,0,left,0.733556545223,KAR,f,20,60.0013737241,Set,2017_12_15_1359,
"[3.0, 3.0]",6,0,6,6,29,,,,,1,0,1,0,left,0.783747243753,KAR,f,20,60.0013737241,Set,2017_12_15_1359,
"[3.0, 3.0]",6,0,6,6,29,,,,,2,0,2,0,down,0.683561637357,KAR,f,20,60.0013737241,Set,2017_12_15_1359,
"[3.0, 3.0]",6,0,6,6,29,,,,,3,0,3,0,down,0.500232106657,KAR,f,20,60.0013737241,Set,2017_12_15_1359,
"[3.0, 3.0]",5,0,7,7,28,,,,,0,0,0,0,down,0.950235225115,KAR,f,20,60.0013737241,Set,2017_12_15_1359,
"[3.0, 3.0]",5,0,7,7,28,,,,,1,0,1,0,down,0.633578966401,KAR,f,20,60.0013737241,Set,2017_12_15_1359,
"[3.0, 3.0]",5,0,7,7,28,,,,,2,0,2,0,left,0.783557768882,KAR,f,20,60.0013737241,Set,2017_12_15_1359,
"[3.0, 3.0]",5,0,7,7,28,,,,,3,0,3,0,down,0.350237119856,KAR,f,20,60.0013737241,Set,2017_12_15_1359,
"[3.0, 3.0]",5,0,7,7,28,,,,,4,0,4,0,down,0.183562821563,KAR,f,20,60.0013737241,Set,2017_12_15_1359,
"[3.0, 3.0]",5,0,7,7,28,,,,,5,0,5,0,left,0.500238027773,KAR,f,20,60.0013737241,Set,2017_12_15_1359,
"[3.0, 3.0]",5,0,7,7,28,,,,,6,0,6,0,left,0.400074526755,KAR,f,20,60.0013737241,Set,2017_12_15_1359,
"[3.0, 3.0]",5,0,7,7,28,,,,,7,0,7,0,down,0.200235422468,KAR,f,20,60.0013737241,Set,2017_12_15_1359,
"[3.0, 3.0]",5,0,7,7,28,,,,,8,0,8,0,down,0.18356795318,KAR,f,20,60.0013737241,Set,2017_12_15_1359,
"[2.6, 2.6]",6,0,8,8,5,,,,,0,0,0,0,left,0.766898194386,KAR,f,20,60.0013737241,Set,2017_12_15_1359,
"[2.6, 2.6]",6,0,8,8,5,,,,,1,0,1,0,down,0.583574190066,KAR,f,20,60.0013737241,Set,2017_12_15_1359,
"[2.6, 2.6]",6,0,8,8,5,,,,,2,0,2,0,down,0.450322462479,KAR,f,20,60.0013737241,Set,2017_12_15_1359,
"[2.9, 2.9]",2,0,9,9,19,,,,,0,0,0,0,down,0.783585795376,KAR,f,20,60.0013737241,Set,2017_12_15_1359,
"[2.9, 2.9]",2,0,9,9,19,,,,,1,0,1,0,down,0.450078118884,KAR,f,20,60.0013737241,Set,2017_12_15_1359,
"[2.6, 2.6]",5,0,10,10,4,,,,,0,0,0,0,down,0.366896299645,KAR,f,20,60.0013737241,Set,2017_12_15_1359,
"[2.6, 2.6]",5,0,10,10,4,,,,,1,0,1,0,down,0.133586071723,KAR,f,20,60.0013737241,Set,2017_12_15_1359,
"[2.6, 2.6]",3,0,11,11,2,,,,,0,0,0,0,down,0.266904510208,KAR,f,20,60.0013737241,Set,2017_12_15_1359,
"[2.6, 2.6]",3,0,11,11,2,,,,,1,0,1,0,down,0.216906049696,KAR,f,20,60.0013737241,Set,2017_12_15_1359,
"[2.6, 2.6]",2,0,12,12,1,,,,,0,0,0,0,down,0.500239606714,KAR,f,20,60.0013737241,Set,2017_12_15_1359,
"[2.6, 2.6]",2,0,12,12,1,,,,,1,0,1,0,down,0.183567163709,KAR,f,20,60.0013737241,Set,2017_12_15_1359,
"[2.9, 2.9]",4,0,13,13,21,,,,,0,0,0,0,down,0.650229856663,KAR,f,20,60.0013737241,Set,2017_12_15_1359,
"[2.9, 2.9]",4,0,13,13,21,,,,,1,0,1,0,down,0.166930484062,KAR,f,20,60.0013737241,Set,2017_12_15_1359,
"[3.0, 3.0]",4,0,14,14,27,,,,,0,0,0,0,down,0.733554571489,KAR,f,20,60.0013737241,Set,2017_12_15_1359,
"[3.0, 3.0]",4,0,14,14,27,,,,,1,0,1,0,down,0.13355962417,KAR,f,20,60.0013737241,Set,2017_12_15_1359,
"[2.9, 2.9]",6,0,15,15,23,,,,,0,0,0,0,left,1.05022464611,KAR,f,20,60.0013737241,Set,2017_12_15_1359,
"[2.9, 2.9]",6,0,15,15,23,,,,,1,0,1,0,down,0.283574347966,KAR,f,20,60.0013737241,Set,2017_12_15_1359,
"[2.9, 2.9]",6,0,15,15,23,,,,,2,0,2,0,down,0.133401728497,KAR,f,20,60.0013737241,Set,2017_12_15_1359,
"[2.8, 2.8]",3,0,16,16,14,,,,,0,0,0,0,down,0.816877707432,KAR,f,20,60.0013737241,Set,2017_12_15_1359,
"[2.8, 2.8]",3,0,16,16,14,,,,,1,0,1,0,down,0.150230251398,KAR,f,20,60.0013737241,Set,2017_12_15_1359,
"[2.8, 2.8]",6,0,17,17,17,,,,,0,0,0,0,down,0.650224725046,KAR,f,20,60.0013737241,Set,2017_12_15_1359,
"[2.8, 2.8]",6,0,17,17,17,,,,,1,0,1,0,down,0.116914655024,KAR,f,20,60.0013737241,Set,2017_12_15_1359,
"[2.9, 2.9]",1,0,18,18,18,,,,,0,0,0,0,down,0.750222435541,KAR,f,20,60.0013737241,Set,2017_12_15_1359,
"[2.9, 2.9]",1,0,18,18,18,,,,,1,0,1,0,down,0.150225909281,KAR,f,20,60.0013737241,Set,2017_12_15_1359,
"[2.9, 2.9]",3,0,19,19,20,,,,,0,0,0,0,left,0.41691568133,KAR,f,20,60.0013737241,Set,2017_12_15_1359,
"[2.9, 2.9]",3,0,19,19,20,,,,,1,0,1,0,down,0.100218764477,KAR,f,20,60.0013737241,Set,2017_12_15_1359,
"[2.9, 2.9]",3,0,19,19,20,,,,,2,0,2,0,down,0.0668905364291,KAR,f,20,60.0013737241,Set,2017_12_15_1359,
"[2.6, 2.6]",1,0,20,20,0,,,,,0,0,0,0,down,0.666898510157,KAR,f,20,60.0013737241,Set,2017_12_15_1359,
"[2.6, 2.6]",1,0,20,20,0,,,,,1,0,1,0,down,0.100237711973,KAR,f,20,60.0013737241,Set,2017_12_15_1359,
"[3.0, 3.0]",3,0,21,21,26,,,,,0,0,0,0,down,0.366923931375,KAR,f,20,60.0013737241,Set,2017_12_15_1359,
"[3.0, 3.0]",3,0,21,21,26,,,,,1,0,1,0,down,0.0335808611417,KAR,f,20,60.0013737241,Set,2017_12_15_1359,
"[2.7, 2.7]",1,0,22,22,6,,,,,0,0,0,0,down,0.633550150436,KAR,f,20,60.0013737241,Set,2017_12_15_1359,
"[2.7, 2.7]",1,0,22,22,6,,,,,1,0,1,0,down,0.0835757690074,KAR,f,20,60.0013737241,Set,2017_12_15_1359,
"[2.8, 2.8]",5,0,23,23,16,,,,,0,0,0,0,down,0.350242251472,KAR,f,20,60.0013737241,Set,2017_12_15_1359,
"[2.8, 2.8]",5,0,23,23,16,,,,,1,0,1,0,down,0.116904786526,KAR,f,20,60.0013737241,Set,2017_12_15_1359,
"[2.7, 2.7]",2,0,24,24,7,,,,,0,0,0,0,down,0.333575571625,KAR,f,20,60.0013737241,Set,2017_12_15_1359,
"[2.7, 2.7]",2,0,24,24,7,,,,,1,0,1,0,down,0.133584098017,KAR,f,20,60.0013737241,Set,2017_12_15_1359,
"[2.7, 2.7]",4,0,25,25,9,,,,,0,0,0,0,down,0.283580269024,KAR,f,20,60.0013737241,Set,2017_12_15_1359,
"[2.7, 2.7]",4,0,25,25,9,,,,,1,0,1,0,down,0.100232185621,KAR,f,20,60.0013737241,Set,2017_12_15_1359,
"[2.7, 2.7]",3,0,26,26,8,,,,,0,0,0,0,left,0.66689495754,KAR,f,20,60.0013737241,Set,2017_12_15_1359,
"[2.7, 2.7]",3,0,26,26,8,,,,,1,0,1,0,down,0.083595900709,KAR,f,20,60.0013737241,Set,2017_12_15_1359,
"[2.7, 2.7]",3,0,26,26,8,,,,,2,0,2,0,down,0.000237238273257,KAR,f,20,60.0013737241,Set,2017_12_15_1359,
"[2.7, 2.7]",5,0,27,27,10,,,,,0,0,0,0,down,0.566912641836,KAR,f,20,60.0013737241,Set,2017_12_15_1359,
"[2.7, 2.7]",5,0,27,27,10,,,,,1,0,1,0,down,0.0668929048989,KAR,f,20,60.0013737241,Set,2017_12_15_1359,
"[2.6, 2.6]",4,0,28,28,3,,,,,0,0,0,0,down,0.233565229486,KAR,f,20,60.0013737241,Set,2017_12_15_1359,
"[2.6, 2.6]",4,0,28,28,3,,,,,1,0,1,0,down,0.0169208918815,KAR,f,20,60.0013737241,Set,2017_12_15_1359,
"[2.8, 2.8]",2,0,29,29,13,,,,,0,0,0,0,down,0.300259975251,KAR,f,20,60.0013737241,Set,2017_12_15_1359,
"[2.8, 2.8]",2,0,29,29,13,,,,,1,0,1,0,down,0.0668940891046,KAR,f,20,60.0013737241,Set,2017_12_15_1359,
