size,n,trials_2.thisRepN,trials_2.thisTrialN,trials_2.thisN,trials_2.thisIndex,trials.thisRepN,trials.thisTrialN,trials.thisN,trials.thisIndex,trials_3.thisRepN,trials_3.thisTrialN,trials_3.thisN,trials_3.thisIndex,answer.keys,answer.rt,participant,gender,age,frameRate,expName,date,
"[2.7, 2.7]",5,0,0,0,10,,,,,0,0,0,0,right,5.17543750923,MB,f,20,60.0067744881,Set,2017_12_15_1535,
"[2.7, 2.7]",5,0,0,0,10,,,,,1,0,1,0,right,2.37543687766,MB,f,20,60.0067744881,Set,2017_12_15_1535,
"[2.7, 2.7]",5,0,0,0,10,,,,,2,0,2,0,left,1.25877525049,MB,f,20,60.0067744881,Set,2017_12_15_1535,
"[2.7, 2.7]",5,0,0,0,10,,,,,3,0,3,0,right,0.675482509483,MB,f,20,60.0067744881,Set,2017_12_15_1535,
"[2.7, 2.7]",5,0,0,0,10,,,,,4,0,4,0,right,0.458791987417,MB,f,20,60.0067744881,Set,2017_12_15_1535,
"[2.7, 2.7]",5,0,0,0,10,,,,,5,0,5,0,left,1.59211555752,MB,f,20,60.0067744881,Set,2017_12_15_1535,
"[2.7, 2.7]",5,0,0,0,10,,,,,6,0,6,0,right,1.00879360587,MB,f,20,60.0067744881,Set,2017_12_15_1535,
"[2.7, 2.7]",5,0,0,0,10,,,,,7,0,7,0,right,0.592134899751,MB,f,20,60.0067744881,Set,2017_12_15_1535,
"[2.7, 2.7]",5,0,0,0,10,,,,,8,0,8,0,left,0.758812355984,MB,f,20,60.0067744881,Set,2017_12_15_1535,
"[2.7, 2.7]",5,0,0,0,10,,,,,9,0,9,0,down,3.35876111881,MB,f,20,60.0067744881,Set,2017_12_15_1535,
"[2.7, 2.7]",5,0,0,0,10,,,,,10,0,10,0,right,0.575484798988,MB,f,20,60.0067744881,Set,2017_12_15_1535,
"[2.7, 2.7]",5,0,0,0,10,,,,,11,0,11,0,down,0.458805013797,MB,f,20,60.0067744881,Set,2017_12_15_1535,
"[2.7, 2.7]",5,0,0,0,10,,,,,12,0,12,0,right,1.45880382962,MB,f,20,60.0067744881,Set,2017_12_15_1535,
"[2.7, 2.7]",5,0,0,0,10,,,,,13,0,13,0,down,0.958610012633,MB,f,20,60.0067744881,Set,2017_12_15_1535,
"[2.7, 2.7]",5,0,0,0,10,,,,,14,0,14,0,right,0.425450338254,MB,f,20,60.0067744881,Set,2017_12_15_1535,
"[2.7, 2.7]",5,0,0,0,10,,,,,15,0,15,0,right,1.59212858393,MB,f,20,60.0067744881,Set,2017_12_15_1535,
"[2.7, 2.7]",5,0,0,0,10,,,,,16,0,16,0,down,1.17547106207,MB,f,20,60.0067744881,Set,2017_12_15_1535,
"[2.7, 2.7]",5,0,0,0,10,,,,,17,0,17,0,down,1.72551610178,MB,f,20,60.0067744881,Set,2017_12_15_1535,
"[2.7, 2.7]",5,0,0,0,10,,,,,18,0,18,0,right,0.325443153997,MB,f,20,60.0067744881,Set,2017_12_15_1535,
"[2.7, 2.7]",5,0,0,0,10,,,,,19,0,19,0,left,0.925299547875,MB,f,20,60.0067744881,Set,2017_12_15_1535,
"[2.7, 2.7]",5,0,0,0,10,,,,,20,0,20,0,down,0.892122504942,MB,f,20,60.0067744881,Set,2017_12_15_1535,
"[2.7, 2.7]",5,0,0,0,10,,,,,21,0,21,0,left,0.692141294567,MB,f,20,60.0067744881,Set,2017_12_15_1535,
"[2.7, 2.7]",5,0,0,0,10,,,,,22,0,22,0,left,0.442241360928,MB,f,20,60.0067744881,Set,2017_12_15_1535,
"[2.7, 2.7]",5,0,0,0,10,,,,,23,0,23,0,left,0.425460206723,MB,f,20,60.0067744881,Set,2017_12_15_1535,
"[2.7, 2.7]",5,0,0,0,10,,,,,24,0,24,0,down,0.566879483726,MB,f,20,60.0067744881,Set,2017_12_15_1535,
"[2.7, 2.7]",5,0,0,0,10,,,,,25,0,25,0,left,0.40882234287,MB,f,20,60.0067744881,Set,2017_12_15_1535,
"[2.7, 2.7]",5,0,0,0,10,,,,,26,0,26,0,down,0.492133636581,MB,f,20,60.0067744881,Set,2017_12_15_1535,
"[2.7, 2.7]",5,0,0,0,10,,,,,27,0,27,0,left,0.342165492038,MB,f,20,60.0067744881,Set,2017_12_15_1535,
"[2.7, 2.7]",5,0,0,0,10,,,,,28,0,28,0,right,0.342117728607,MB,f,20,60.0067744881,Set,2017_12_15_1535,
"[2.7, 2.7]",5,0,0,0,10,,,,,29,0,29,0,right,0.52546896995,MB,f,20,60.0067744881,Set,2017_12_15_1535,
"[2.7, 2.7]",5,0,0,0,10,,,,,30,0,30,0,right,0.358814408624,MB,f,20,60.0067744881,Set,2017_12_15_1535,
"[2.7, 2.7]",5,0,0,0,10,,,,,31,0,31,0,right,0.292139005061,MB,f,20,60.0067744881,Set,2017_12_15_1535,
"[2.7, 2.7]",5,0,0,0,10,,,,,32,0,32,0,down,0.375457798829,MB,f,20,60.0067744881,Set,2017_12_15_1535,
"[2.7, 2.7]",5,0,0,0,10,,,,,33,0,33,0,down,0.475438535563,MB,f,20,60.0067744881,Set,2017_12_15_1535,
"[2.7, 2.7]",5,0,0,0,10,,,,,34,0,34,0,right,0.358780855779,MB,f,20,60.0067744881,Set,2017_12_15_1535,
"[2.7, 2.7]",5,0,0,0,10,,,,,35,0,35,0,down,0.725507812283,MB,f,20,60.0067744881,Set,2017_12_15_1535,
"[2.7, 2.7]",5,0,0,0,10,,,,,36,0,36,0,down,0.808811605966,MB,f,20,60.0067744881,Set,2017_12_15_1535,
"[2.7, 2.7]",5,0,0,0,10,,,,,37,0,37,0,left,0.492107189086,MB,f,20,60.0067744881,Set,2017_12_15_1535,
"[2.7, 2.7]",5,0,0,0,10,,,,,38,0,38,0,left,0.392113820708,MB,f,20,60.0067744881,Set,2017_12_15_1535,
"[2.7, 2.7]",5,0,0,0,10,,,,,39,0,39,0,right,0.525445285602,MB,f,20,60.0067744881,Set,2017_12_15_1535,
"[2.7, 2.7]",5,0,0,0,10,,,,,40,0,40,0,left,0.408798263787,MB,f,20,60.0067744881,Set,2017_12_15_1535,
"[2.7, 2.7]",5,0,0,0,10,,,,,41,0,41,0,left,0.858780855779,MB,f,20,60.0067744881,Set,2017_12_15_1535,
"[2.7, 2.7]",5,0,0,0,10,,,,,42,0,42,0,down,0.825464075169,MB,f,20,60.0067744881,Set,2017_12_15_1535,
"[2.7, 2.7]",5,0,0,0,10,,,,,43,0,43,0,down,0.658832408721,MB,f,20,60.0067744881,Set,2017_12_15_1535,
"[2.7, 2.7]",5,0,0,0,10,,,,,44,0,44,0,left,0.525453969865,MB,f,20,60.0067744881,Set,2017_12_15_1535,
"[2.7, 2.7]",5,0,0,0,10,,,,,45,0,45,0,down,0.675453693519,MB,f,20,60.0067744881,Set,2017_12_15_1535,
"[2.7, 2.7]",5,0,0,0,10,,,,,46,0,46,0,down,0.817028497811,MB,f,20,60.0067744881,Set,2017_12_15_1535,
"[2.7, 2.7]",5,0,0,0,10,,,,,47,0,47,0,left,0.483561479457,MB,f,20,60.0067744881,Set,2017_12_15_1535,
"[2.7, 2.7]",5,0,0,0,10,,,,,48,0,48,0,left,0.37547714106,MB,f,20,60.0067744881,Set,2017_12_15_1535,
"[2.7, 2.7]",5,0,0,0,10,,,,,49,0,49,0,down,0.575465062022,MB,f,20,60.0067744881,Set,2017_12_15_1535,
"[2.7, 2.7]",5,0,0,0,10,,,,,50,0,50,0,left,0.508815316512,MB,f,20,60.0067744881,Set,2017_12_15_1535,
"[2.7, 2.7]",5,0,0,0,10,,,,,51,0,51,0,right,0.625448522449,MB,f,20,60.0067744881,Set,2017_12_15_1535,
"[2.7, 2.7]",5,0,0,0,10,,,,,52,0,52,0,down,1.29213426818,MB,f,20,60.0067744881,Set,2017_12_15_1535,
"[2.7, 2.7]",5,0,0,0,10,,,,,53,0,53,0,right,0.692157873593,MB,f,20,60.0067744881,Set,2017_12_15_1535,
"[2.7, 2.7]",5,0,0,0,10,,,,,54,0,54,0,down,0.608798421687,MB,f,20,60.0067744881,Set,2017_12_15_1535,
"[2.7, 2.7]",5,0,0,0,10,,,,,55,0,55,0,left,0.442135570804,MB,f,20,60.0067744881,Set,2017_12_15_1535,
"[2.7, 2.7]",5,0,0,0,10,,,,,56,0,56,0,left,0.34212641287,MB,f,20,60.0067744881,Set,2017_12_15_1535,
"[2.7, 2.7]",5,0,0,0,10,,,,,57,0,57,0,left,0.658794908493,MB,f,20,60.0067744881,Set,2017_12_15_1535,
"[2.7, 2.7]",5,0,0,0,10,,,,,58,0,58,0,left,0.725453338266,MB,f,20,60.0067744881,Set,2017_12_15_1535,
"[2.7, 2.7]",5,0,0,0,10,,,,,59,0,59,0,left,0.675436325022,MB,f,20,60.0067744881,Set,2017_12_15_1535,
"[2.7, 2.7]",5,0,0,0,10,,,,,60,0,60,0,down,0.492137189256,MB,f,20,60.0067744881,Set,2017_12_15_1535,
"[2.7, 2.7]",5,0,0,0,10,,,,,61,0,61,0,down,0.508786895283,MB,f,20,60.0067744881,Set,2017_12_15_1535,
"[2.7, 2.7]",5,0,0,0,10,,,,,62,0,62,0,right,0.425458627782,MB,f,20,60.0067744881,Set,2017_12_15_1535,
"[2.7, 2.7]",5,0,0,0,10,,,,,63,0,63,0,right,1.00877978999,MB,f,20,60.0067744881,Set,2017_12_15_1535,
"[2.7, 2.7]",5,0,0,0,10,,,,,64,0,64,0,down,0.658803198021,MB,f,20,60.0067744881,Set,2017_12_15_1535,
"[2.7, 2.7]",5,0,0,0,10,,,,,65,0,65,0,left,0.408765105676,MB,f,20,60.0067744881,Set,2017_12_15_1535,
"[2.7, 2.7]",5,0,0,0,10,,,,,66,0,66,0,left,1.05881101385,MB,f,20,60.0067744881,Set,2017_12_15_1535,
"[2.7, 2.7]",5,0,0,0,10,,,,,67,0,67,0,down,0.47544445665,MB,f,20,60.0067744881,Set,2017_12_15_1535,
"[2.7, 2.7]",5,0,0,0,10,,,,,68,0,68,0,left,0.392118162825,MB,f,20,60.0067744881,Set,2017_12_15_1535,
"[2.7, 2.7]",5,0,0,0,10,,,,,69,0,69,0,down,0.458791592682,MB,f,20,60.0067744881,Set,2017_12_15_1535,
"[2.7, 2.7]",5,0,0,0,10,,,,,70,0,70,0,left,0.292129531299,MB,f,20,60.0067744881,Set,2017_12_15_1535,
"[2.7, 2.7]",5,0,0,0,10,,,,,71,0,71,0,down,0.442122939159,MB,f,20,60.0067744881,Set,2017_12_15_1535,
"[2.7, 2.7]",5,0,0,0,10,,,,,72,0,72,0,left,0.258643012843,MB,f,20,60.0067744881,Set,2017_12_15_1535,
"[2.7, 2.7]",5,0,0,0,10,,,,,73,0,73,0,left,0.525459496188,MB,f,20,60.0067744881,Set,2017_12_15_1535,
"[2.7, 2.7]",5,0,0,0,10,,,,,74,0,74,0,down,0.275474693655,MB,f,20,60.0067744881,Set,2017_12_15_1535,
"[2.7, 2.7]",5,0,0,0,10,,,,,75,0,75,0,right,0.558812592819,MB,f,20,60.0067744881,Set,2017_12_15_1535,
"[2.7, 2.7]",5,0,0,0,10,,,,,76,0,76,0,left,0.508775447845,MB,f,20,60.0067744881,Set,2017_12_15_1535,
"[2.7, 2.7]",5,0,0,0,10,,,,,77,0,77,0,down,0.32546723308,MB,f,20,60.0067744881,Set,2017_12_15_1535,
"[2.7, 2.7]",5,0,0,0,10,,,,,78,0,78,0,left,0.492157320958,MB,f,20,60.0067744881,Set,2017_12_15_1535,
"[2.7, 2.7]",5,0,0,0,10,,,,,79,0,79,0,down,0.375466483092,MB,f,20,60.0067744881,Set,2017_12_15_1535,
"[2.7, 2.7]",5,0,0,0,10,,,,,80,0,80,0,down,0.50879044793,MB,f,20,60.0067744881,Set,2017_12_15_1535,
"[2.7, 2.7]",4,0,1,1,9,,,,,0,0,0,0,left,0.675467904162,MB,f,20,60.0067744881,Set,2017_12_15_1535,
"[2.7, 2.7]",4,0,1,1,9,,,,,1,0,1,0,right,0.508773079433,MB,f,20,60.0067744881,Set,2017_12_15_1535,
"[2.7, 2.7]",4,0,1,1,9,,,,,2,0,2,0,left,0.342140228749,MB,f,20,60.0067744881,Set,2017_12_15_1535,
"[2.7, 2.7]",4,0,1,1,9,,,,,3,0,3,0,down,0.275465219893,MB,f,20,60.0067744881,Set,2017_12_15_1535,
"[2.7, 2.7]",4,0,1,1,9,,,,,4,0,4,0,down,0.408788395289,MB,f,20,60.0067744881,Set,2017_12_15_1535,
"[2.7, 2.7]",4,0,1,1,9,,,,,5,0,5,0,left,0.442132807628,MB,f,20,60.0067744881,Set,2017_12_15_1535,
"[2.7, 2.7]",4,0,1,1,9,,,,,6,0,6,0,left,0.558772329416,MB,f,20,60.0067744881,Set,2017_12_15_1535,
"[2.7, 2.7]",4,0,1,1,9,,,,,7,0,7,0,down,0.47545985147,MB,f,20,60.0067744881,Set,2017_12_15_1535,
"[2.7, 2.7]",4,0,1,1,9,,,,,8,0,8,0,left,0.74214133402,MB,f,20,60.0067744881,Set,2017_12_15_1535,
"[2.7, 2.7]",4,0,1,1,9,,,,,9,0,9,0,down,0.392143426143,MB,f,20,60.0067744881,Set,2017_12_15_1535,
"[2.7, 2.7]",4,0,1,1,9,,,,,10,0,10,0,left,0.442109912779,MB,f,20,60.0067744881,Set,2017_12_15_1535,
"[2.7, 2.7]",4,0,1,1,9,,,,,11,0,11,0,left,0.39213316291,MB,f,20,60.0067744881,Set,2017_12_15_1535,
"[2.7, 2.7]",4,0,1,1,9,,,,,12,0,12,0,left,0.392159215698,MB,f,20,60.0067744881,Set,2017_12_15_1535,
"[2.7, 2.7]",4,0,1,1,9,,,,,13,0,13,0,left,0.408810500696,MB,f,20,60.0067744881,Set,2017_12_15_1535,
"[2.7, 2.7]",4,0,1,1,9,,,,,14,0,14,0,left,1.058806277,MB,f,20,60.0067744881,Set,2017_12_15_1535,
"[2.7, 2.7]",4,0,1,1,9,,,,,15,0,15,0,left,1.00880939543,MB,f,20,60.0067744881,Set,2017_12_15_1535,
"[2.7, 2.7]",4,0,1,1,9,,,,,16,0,16,0,down,0.458814092824,MB,f,20,60.0067744881,Set,2017_12_15_1535,
"[2.7, 2.7]",4,0,1,1,9,,,,,17,0,17,0,down,0.575458351464,MB,f,20,60.0067744881,Set,2017_12_15_1535,
"[2.7, 2.7]",4,0,1,1,9,,,,,18,0,18,0,right,0.408808921755,MB,f,20,60.0067744881,Set,2017_12_15_1535,
"[2.7, 2.7]",4,0,1,1,9,,,,,19,0,19,0,right,0.408770632028,MB,f,20,60.0067744881,Set,2017_12_15_1535,
"[2.7, 2.7]",4,0,1,1,9,,,,,20,0,20,0,right,0.392126057588,MB,f,20,60.0067744881,Set,2017_12_15_1535,
"[2.7, 2.7]",4,0,1,1,9,,,,,21,0,21,0,right,0.375300297863,MB,f,20,60.0067744881,Set,2017_12_15_1535,
"[2.7, 2.7]",4,0,1,1,9,,,,,22,0,22,0,down,0.400233211927,MB,f,20,60.0067744881,Set,2017_12_15_1535,
"[2.7, 2.7]",4,0,1,1,9,,,,,23,0,23,0,left,0.492143899814,MB,f,20,60.0067744881,Set,2017_12_15_1535,
"[2.7, 2.7]",4,0,1,1,9,,,,,24,0,24,0,down,0.408782079467,MB,f,20,60.0067744881,Set,2017_12_15_1535,
"[2.7, 2.7]",4,0,1,1,9,,,,,25,0,25,0,down,0.45879830324,MB,f,20,60.0067744881,Set,2017_12_15_1535,
"[2.8, 2.8]",2,0,2,2,13,,,,,0,0,0,0,right,1.37545543039,MB,f,20,60.0067744881,Set,2017_12_15_1535,
"[2.8, 2.8]",2,0,2,2,13,,,,,1,0,1,0,down,0.458792776888,MB,f,20,60.0067744881,Set,2017_12_15_1535,
"[2.8, 2.8]",2,0,2,2,13,,,,,2,0,2,0,down,0.825486180576,MB,f,20,60.0067744881,Set,2017_12_15_1535,
"[2.8, 2.8]",6,0,3,3,17,,,,,0,0,0,0,down,0.858753618755,MB,f,20,60.0067744881,Set,2017_12_15_1535,
"[2.8, 2.8]",6,0,3,3,17,,,,,1,0,1,0,right,0.691950240755,MB,f,20,60.0067744881,Set,2017_12_15_1535,
"[2.8, 2.8]",6,0,3,3,17,,,,,2,0,2,0,down,0.392114215414,MB,f,20,60.0067744881,Set,2017_12_15_1535,
"[2.8, 2.8]",6,0,3,3,17,,,,,3,0,3,0,down,0.358749671374,MB,f,20,60.0067744881,Set,2017_12_15_1535,
"[2.8, 2.8]",6,0,3,3,17,,,,,4,0,4,0,right,0.408860237832,MB,f,20,60.0067744881,Set,2017_12_15_1535,
"[2.8, 2.8]",6,0,3,3,17,,,,,5,0,5,0,down,0.325477891049,MB,f,20,60.0067744881,Set,2017_12_15_1535,
"[2.8, 2.8]",6,0,3,3,17,,,,,6,0,6,0,down,0.325514601805,MB,f,20,60.0067744881,Set,2017_12_15_1535,
"[2.7, 2.7]",6,0,4,4,11,,,,,0,0,0,0,down,0.775422982842,MB,f,20,60.0067744881,Set,2017_12_15_1535,
"[2.7, 2.7]",6,0,4,4,11,,,,,1,0,1,0,down,0.492122978641,MB,f,20,60.0067744881,Set,2017_12_15_1535,
"[2.9, 2.9]",4,0,5,5,21,,,,,0,0,0,0,left,0.9421253076,MB,f,20,60.0067744881,Set,2017_12_15_1535,
"[2.9, 2.9]",4,0,5,5,21,,,,,1,0,1,0,right,0.875450693507,MB,f,20,60.0067744881,Set,2017_12_15_1535,
"[2.9, 2.9]",4,0,5,5,21,,,,,2,0,2,0,right,0.508760447759,MB,f,20,60.0067744881,Set,2017_12_15_1535,
"[2.9, 2.9]",4,0,5,5,21,,,,,3,0,3,0,down,0.442142676126,MB,f,20,60.0067744881,Set,2017_12_15_1535,
"[2.9, 2.9]",4,0,5,5,21,,,,,4,0,4,0,right,0.591943056497,MB,f,20,60.0067744881,Set,2017_12_15_1535,
"[2.9, 2.9]",4,0,5,5,21,,,,,5,0,5,0,left,0.658827671839,MB,f,20,60.0067744881,Set,2017_12_15_1535,
"[2.9, 2.9]",4,0,5,5,21,,,,,6,0,6,0,right,0.692101031163,MB,f,20,60.0067744881,Set,2017_12_15_1535,
"[2.9, 2.9]",4,0,5,5,21,,,,,7,0,7,0,left,0.392080267862,MB,f,20,60.0067744881,Set,2017_12_15_1535,
"[2.9, 2.9]",4,0,5,5,21,,,,,8,0,8,0,down,0.808792658499,MB,f,20,60.0067744881,Set,2017_12_15_1535,
"[2.9, 2.9]",4,0,5,5,21,,,,,9,0,9,0,right,0.425441259256,MB,f,20,60.0067744881,Set,2017_12_15_1535,
"[2.9, 2.9]",4,0,5,5,21,,,,,10,0,10,0,right,0.392128426029,MB,f,20,60.0067744881,Set,2017_12_15_1535,
"[2.9, 2.9]",4,0,5,5,21,,,,,11,0,11,0,down,0.492106004851,MB,f,20,60.0067744881,Set,2017_12_15_1535,
"[2.9, 2.9]",4,0,5,5,21,,,,,12,0,12,0,down,0.39210158377,MB,f,20,60.0067744881,Set,2017_12_15_1535,
"[2.9, 2.9]",4,0,5,5,21,,,,,13,0,13,0,right,0.508769921522,MB,f,20,60.0067744881,Set,2017_12_15_1535,
"[2.9, 2.9]",4,0,5,5,21,,,,,14,0,14,0,down,0.458825145528,MB,f,20,60.0067744881,Set,2017_12_15_1535,
"[2.9, 2.9]",4,0,5,5,21,,,,,15,0,15,0,right,0.775451009307,MB,f,20,60.0067744881,Set,2017_12_15_1535,
"[2.9, 2.9]",4,0,5,5,21,,,,,16,0,16,0,down,0.42546691731,MB,f,20,60.0067744881,Set,2017_12_15_1535,
"[2.9, 2.9]",4,0,5,5,21,,,,,17,0,17,0,left,0.625474970002,MB,f,20,60.0067744881,Set,2017_12_15_1535,
"[2.9, 2.9]",4,0,5,5,21,,,,,18,0,18,0,down,0.425455864606,MB,f,20,60.0067744881,Set,2017_12_15_1535,
"[2.9, 2.9]",4,0,5,5,21,,,,,19,0,19,0,left,0.358816777065,MB,f,20,60.0067744881,Set,2017_12_15_1535,
"[2.9, 2.9]",4,0,5,5,21,,,,,20,0,20,0,left,0.592104899581,MB,f,20,60.0067744881,Set,2017_12_15_1535,
"[2.9, 2.9]",4,0,5,5,21,,,,,21,0,21,0,right,0.42546533834,MB,f,20,60.0067744881,Set,2017_12_15_1535,
"[2.9, 2.9]",4,0,5,5,21,,,,,22,0,22,0,left,0.375465298857,MB,f,20,60.0067744881,Set,2017_12_15_1535,
"[2.9, 2.9]",4,0,5,5,21,,,,,23,0,23,0,left,0.408762737265,MB,f,20,60.0067744881,Set,2017_12_15_1535,
"[2.9, 2.9]",4,0,5,5,21,,,,,24,0,24,0,left,0.375445561891,MB,f,20,60.0067744881,Set,2017_12_15_1535,
"[2.9, 2.9]",4,0,5,5,21,,,,,25,0,25,0,left,0.592142005073,MB,f,20,60.0067744881,Set,2017_12_15_1535,
"[2.9, 2.9]",4,0,5,5,21,,,,,26,0,26,0,left,0.608790921629,MB,f,20,60.0067744881,Set,2017_12_15_1535,
"[2.9, 2.9]",4,0,5,5,21,,,,,27,0,27,0,down,0.475451167207,MB,f,20,60.0067744881,Set,2017_12_15_1535,
"[2.9, 2.9]",4,0,5,5,21,,,,,28,0,28,0,left,0.408764710941,MB,f,20,60.0067744881,Set,2017_12_15_1535,
"[2.9, 2.9]",4,0,5,5,21,,,,,29,0,29,0,left,0.34214101822,MB,f,20,60.0067744881,Set,2017_12_15_1535,
"[2.9, 2.9]",4,0,5,5,21,,,,,30,0,30,0,right,0.542113939096,MB,f,20,60.0067744881,Set,2017_12_15_1535,
"[2.9, 2.9]",4,0,5,5,21,,,,,31,0,31,0,down,0.44210754431,MB,f,20,60.0067744881,Set,2017_12_15_1535,
"[2.9, 2.9]",4,0,5,5,21,,,,,32,0,32,0,left,0.408783658437,MB,f,20,60.0067744881,Set,2017_12_15_1535,
"[2.9, 2.9]",4,0,5,5,21,,,,,33,0,33,0,left,0.358804540127,MB,f,20,60.0067744881,Set,2017_12_15_1535,
"[2.9, 2.9]",4,0,5,5,21,,,,,34,0,34,0,left,0.292128741828,MB,f,20,60.0067744881,Set,2017_12_15_1535,
"[2.9, 2.9]",4,0,5,5,21,,,,,35,0,35,0,left,0.408831027133,MB,f,20,60.0067744881,Set,2017_12_15_1535,
"[2.9, 2.9]",4,0,5,5,21,,,,,36,0,36,0,down,0.775447061926,MB,f,20,60.0067744881,Set,2017_12_15_1535,
"[2.9, 2.9]",4,0,5,5,21,,,,,37,0,37,0,right,0.742068702006,MB,f,20,60.0067744881,Set,2017_12_15_1535,
"[2.9, 2.9]",4,0,5,5,21,,,,,38,0,38,0,down,0.458790408476,MB,f,20,60.0067744881,Set,2017_12_15_1535,
"[2.9, 2.9]",4,0,5,5,21,,,,,39,0,39,0,down,0.442133202392,MB,f,20,60.0067744881,Set,2017_12_15_1535,
"[2.9, 2.9]",4,0,5,5,21,,,,,40,0,40,0,left,0.40873155286,MB,f,20,60.0067744881,Set,2017_12_15_1535,
"[2.9, 2.9]",4,0,5,5,21,,,,,41,0,41,0,left,0.842121675989,MB,f,20,60.0067744881,Set,2017_12_15_1535,
"[2.9, 2.9]",4,0,5,5,21,,,,,42,0,42,0,right,0.525465812039,MB,f,20,60.0067744881,Set,2017_12_15_1535,
"[2.9, 2.9]",4,0,5,5,21,,,,,43,0,43,0,right,0.358797040069,MB,f,20,60.0067744881,Set,2017_12_15_1535,
"[2.9, 2.9]",4,0,5,5,21,,,,,44,0,44,0,down,0.492152978841,MB,f,20,60.0067744881,Set,2017_12_15_1535,
"[2.9, 2.9]",4,0,5,5,21,,,,,45,0,45,0,down,0.558767197799,MB,f,20,60.0067744881,Set,2017_12_15_1535,
"[2.8, 2.8]",5,0,6,6,16,,,,,0,0,0,0,right,1.75019638275,MB,f,20,60.0067744881,Set,2017_12_15_1535,
"[2.8, 2.8]",5,0,6,6,16,,,,,1,0,1,0,right,1.6087735531,MB,f,20,60.0067744881,Set,2017_12_15_1535,
"[2.8, 2.8]",5,0,6,6,16,,,,,2,0,2,0,left,0.392135926086,MB,f,20,60.0067744881,Set,2017_12_15_1535,
"[2.8, 2.8]",5,0,6,6,16,,,,,3,0,3,0,left,0.442167149944,MB,f,20,60.0067744881,Set,2017_12_15_1535,
"[2.8, 2.8]",5,0,6,6,16,,,,,4,0,4,0,right,0.508803474338,MB,f,20,60.0067744881,Set,2017_12_15_1535,
"[2.8, 2.8]",5,0,6,6,16,,,,,5,0,5,0,down,0.758766171464,MB,f,20,60.0067744881,Set,2017_12_15_1535,
"[2.8, 2.8]",5,0,6,6,16,,,,,6,0,6,0,left,0.325466048875,MB,f,20,60.0067744881,Set,2017_12_15_1535,
"[2.8, 2.8]",5,0,6,6,16,,,,,7,0,7,0,down,0.392151715641,MB,f,20,60.0067744881,Set,2017_12_15_1535,
"[2.8, 2.8]",5,0,6,6,16,,,,,8,0,8,0,left,0.258795382193,MB,f,20,60.0067744881,Set,2017_12_15_1535,
"[2.8, 2.8]",5,0,6,6,16,,,,,9,0,9,0,down,0.533561518911,MB,f,20,60.0067744881,Set,2017_12_15_1535,
"[2.8, 2.8]",5,0,6,6,16,,,,,10,0,10,0,right,0.350211856567,MB,f,20,60.0067744881,Set,2017_12_15_1535,
"[2.8, 2.8]",5,0,6,6,16,,,,,11,0,11,0,down,0.658763329353,MB,f,20,60.0067744881,Set,2017_12_15_1535,
"[2.8, 2.8]",5,0,6,6,16,,,,,12,0,12,0,down,0.758629986434,MB,f,20,60.0067744881,Set,2017_12_15_1535,
"[2.8, 2.8]",5,0,6,6,16,,,,,13,0,13,0,left,0.408790763729,MB,f,20,60.0067744881,Set,2017_12_15_1535,
"[2.8, 2.8]",5,0,6,6,16,,,,,14,0,14,0,down,0.25878432949,MB,f,20,60.0067744881,Set,2017_12_15_1535,
"[2.8, 2.8]",5,0,6,6,16,,,,,15,0,15,0,down,0.308757131948,MB,f,20,60.0067744881,Set,2017_12_15_1535,
"[2.8, 2.8]",5,0,6,6,16,,,,,16,0,16,0,left,0.392130399734,MB,f,20,60.0067744881,Set,2017_12_15_1535,
"[2.8, 2.8]",5,0,6,6,16,,,,,17,0,17,0,left,0.425461785693,MB,f,20,60.0067744881,Set,2017_12_15_1535,
"[2.8, 2.8]",5,0,6,6,16,,,,,18,0,18,0,left,1.80885265884,MB,f,20,60.0067744881,Set,2017_12_15_1535,
"[2.8, 2.8]",5,0,6,6,16,,,,,19,0,19,0,left,0.642181123723,MB,f,20,60.0067744881,Set,2017_12_15_1535,
"[2.8, 2.8]",5,0,6,6,16,,,,,20,0,20,0,down,0.508801895397,MB,f,20,60.0067744881,Set,2017_12_15_1535,
"[2.8, 2.8]",5,0,6,6,16,,,,,21,0,21,0,right,0.458780540008,MB,f,20,60.0067744881,Set,2017_12_15_1535,
"[2.8, 2.8]",5,0,6,6,16,,,,,22,0,22,0,left,0.292121636507,MB,f,20,60.0067744881,Set,2017_12_15_1535,
"[2.8, 2.8]",5,0,6,6,16,,,,,23,0,23,0,left,0.442149781418,MB,f,20,60.0067744881,Set,2017_12_15_1535,
"[2.8, 2.8]",5,0,6,6,16,,,,,24,0,24,0,left,0.408800632227,MB,f,20,60.0067744881,Set,2017_12_15_1535,
"[2.8, 2.8]",5,0,6,6,16,,,,,25,0,25,0,left,0.625488391117,MB,f,20,60.0067744881,Set,2017_12_15_1535,
"[2.8, 2.8]",5,0,6,6,16,,,,,26,0,26,0,left,2.35882348759,MB,f,20,60.0067744881,Set,2017_12_15_1535,
"[2.8, 2.8]",5,0,6,6,16,,,,,27,0,27,0,down,0.542122228624,MB,f,20,60.0067744881,Set,2017_12_15_1535,
"[2.8, 2.8]",5,0,6,6,16,,,,,28,0,28,0,left,0.508786105813,MB,f,20,60.0067744881,Set,2017_12_15_1535,
"[2.8, 2.8]",5,0,6,6,16,,,,,29,0,29,0,left,0.525483970036,MB,f,20,60.0067744881,Set,2017_12_15_1535,
"[2.8, 2.8]",5,0,6,6,16,,,,,30,0,30,0,left,0.608966580592,MB,f,20,60.0067744881,Set,2017_12_15_1535,
"[2.8, 2.8]",5,0,6,6,16,,,,,31,0,31,0,left,0.908783658437,MB,f,20,60.0067744881,Set,2017_12_15_1535,
"[2.8, 2.8]",5,0,6,6,16,,,,,32,0,32,0,left,0.592144373513,MB,f,20,60.0067744881,Set,2017_12_15_1535,
"[2.8, 2.8]",5,0,6,6,16,,,,,33,0,33,0,down,0.458777776832,MB,f,20,60.0067744881,Set,2017_12_15_1535,
"[2.8, 2.8]",5,0,6,6,16,,,,,34,0,34,0,left,0.55879956641,MB,f,20,60.0067744881,Set,2017_12_15_1535,
"[2.8, 2.8]",5,0,6,6,16,,,,,35,0,35,0,left,0.342133912927,MB,f,20,60.0067744881,Set,2017_12_15_1535,
"[2.8, 2.8]",5,0,6,6,16,,,,,36,0,36,0,down,0.542130912887,MB,f,20,60.0067744881,Set,2017_12_15_1535,
"[2.8, 2.8]",5,0,6,6,16,,,,,37,0,37,0,left,0.175476983131,MB,f,20,60.0067744881,Set,2017_12_15_1535,
"[2.8, 2.8]",5,0,6,6,16,,,,,38,0,38,0,down,0.525464627804,MB,f,20,60.0067744881,Set,2017_12_15_1535,
"[2.8, 2.8]",5,0,6,6,16,,,,,39,0,39,0,down,0.35878559266,MB,f,20,60.0067744881,Set,2017_12_15_1535,
"[2.7, 2.7]",2,0,7,7,7,,,,,0,0,0,0,right,0.98356937425,MB,f,20,60.0067744881,Set,2017_12_15_1535,
"[2.7, 2.7]",2,0,7,7,7,,,,,1,0,1,0,right,0.54214117612,MB,f,20,60.0067744881,Set,2017_12_15_1535,
"[2.7, 2.7]",2,0,7,7,7,,,,,2,0,2,0,down,2.20876652675,MB,f,20,60.0067744881,Set,2017_12_15_1535,
"[2.7, 2.7]",2,0,7,7,7,,,,,3,0,3,0,down,0.508794790076,MB,f,20,60.0067744881,Set,2017_12_15_1535,
"[2.6, 2.6]",5,0,8,8,4,,,,,0,0,0,0,down,4.26679674641,MB,f,20,60.0067744881,Set,2017_12_15_1535,
"[2.6, 2.6]",5,0,8,8,4,,,,,1,0,1,0,right,1.15023380404,MB,f,20,60.0067744881,Set,2017_12_15_1535,
"[2.6, 2.6]",5,0,8,8,4,,,,,2,0,2,0,right,1.00026605424,MB,f,20,60.0067744881,Set,2017_12_15_1535,
"[2.6, 2.6]",5,0,8,8,4,,,,,3,0,3,0,down,0.425464154134,MB,f,20,60.0067744881,Set,2017_12_15_1535,
"[2.6, 2.6]",5,0,8,8,4,,,,,4,0,4,0,down,0.342088517908,MB,f,20,60.0067744881,Set,2017_12_15_1535,
"[2.6, 2.6]",1,0,9,9,0,,,,,0,0,0,0,right,0.692107346986,MB,f,20,60.0067744881,Set,2017_12_15_1535,
"[2.6, 2.6]",1,0,9,9,0,,,,,1,0,1,0,left,0.558791276912,MB,f,20,60.0067744881,Set,2017_12_15_1535,
"[2.6, 2.6]",1,0,9,9,0,,,,,2,0,2,0,right,0.375457404094,MB,f,20,60.0067744881,Set,2017_12_15_1535,
"[2.6, 2.6]",1,0,9,9,0,,,,,3,0,3,0,right,0.892105531151,MB,f,20,60.0067744881,Set,2017_12_15_1535,
"[2.6, 2.6]",1,0,9,9,0,,,,,4,0,4,0,down,0.708760210924,MB,f,20,60.0067744881,Set,2017_12_15_1535,
"[2.6, 2.6]",1,0,9,9,0,,,,,5,0,5,0,down,0.458627775894,MB,f,20,60.0067744881,Set,2017_12_15_1535,
"[2.6, 2.6]",1,0,9,9,0,,,,,6,0,6,0,left,0.525426338107,MB,f,20,60.0067744881,Set,2017_12_15_1535,
"[2.6, 2.6]",1,0,9,9,0,,,,,7,0,7,0,down,0.4087923427,MB,f,20,60.0067744881,Set,2017_12_15_1535,
"[2.6, 2.6]",1,0,9,9,0,,,,,8,0,8,0,left,0.592111215403,MB,f,20,60.0067744881,Set,2017_12_15_1535,
"[2.6, 2.6]",1,0,9,9,0,,,,,9,0,9,0,down,0.508790842694,MB,f,20,60.0067744881,Set,2017_12_15_1535,
"[2.6, 2.6]",1,0,9,9,0,,,,,10,0,10,0,down,0.89213316291,MB,f,20,60.0067744881,Set,2017_12_15_1535,
"[2.6, 2.6]",1,0,9,9,0,,,,,11,0,11,0,left,0.458780540008,MB,f,20,60.0067744881,Set,2017_12_15_1535,
"[2.6, 2.6]",1,0,9,9,0,,,,,12,0,12,0,left,0.592096610053,MB,f,20,60.0067744881,Set,2017_12_15_1535,
"[2.6, 2.6]",1,0,9,9,0,,,,,13,0,13,0,left,0.408779316291,MB,f,20,60.0067744881,Set,2017_12_15_1535,
"[2.6, 2.6]",1,0,9,9,0,,,,,14,0,14,0,left,0.59211950496,MB,f,20,60.0067744881,Set,2017_12_15_1535,
"[2.6, 2.6]",1,0,9,9,0,,,,,15,0,15,0,down,0.508789263724,MB,f,20,60.0067744881,Set,2017_12_15_1535,
"[2.6, 2.6]",1,0,9,9,0,,,,,16,0,16,0,left,0.47545669353,MB,f,20,60.0067744881,Set,2017_12_15_1535,
"[2.6, 2.6]",1,0,9,9,0,,,,,17,0,17,0,left,0.375455430389,MB,f,20,60.0067744881,Set,2017_12_15_1535,
"[2.6, 2.6]",1,0,9,9,0,,,,,18,0,18,0,left,0.44212609707,MB,f,20,60.0067744881,Set,2017_12_15_1535,
"[2.6, 2.6]",1,0,9,9,0,,,,,19,0,19,0,left,0.575464272522,MB,f,20,60.0067744881,Set,2017_12_15_1535,
"[2.6, 2.6]",1,0,9,9,0,,,,,20,0,20,0,left,0.725460443558,MB,f,20,60.0067744881,Set,2017_12_15_1535,
"[2.6, 2.6]",1,0,9,9,0,,,,,21,0,21,0,left,0.608787763718,MB,f,20,60.0067744881,Set,2017_12_15_1535,
"[2.6, 2.6]",1,0,9,9,0,,,,,22,0,22,0,left,0.458805408562,MB,f,20,60.0067744881,Set,2017_12_15_1535,
"[2.6, 2.6]",1,0,9,9,0,,,,,23,0,23,0,down,0.542116702301,MB,f,20,60.0067744881,Set,2017_12_15_1535,
"[2.6, 2.6]",1,0,9,9,0,,,,,24,0,24,0,left,0.42546454884,MB,f,20,60.0067744881,Set,2017_12_15_1535,
"[2.6, 2.6]",1,0,9,9,0,,,,,25,0,25,0,left,0.658779513673,MB,f,20,60.0067744881,Set,2017_12_15_1535,
"[2.6, 2.6]",1,0,9,9,0,,,,,26,0,26,0,right,0.408831421868,MB,f,20,60.0067744881,Set,2017_12_15_1535,
"[2.6, 2.6]",1,0,9,9,0,,,,,27,0,27,0,down,0.37544398295,MB,f,20,60.0067744881,Set,2017_12_15_1535,
"[2.6, 2.6]",1,0,9,9,0,,,,,28,0,28,0,left,0.342149702483,MB,f,20,60.0067744881,Set,2017_12_15_1535,
"[2.6, 2.6]",1,0,9,9,0,,,,,29,0,29,0,down,0.375465693622,MB,f,20,60.0067744881,Set,2017_12_15_1535,
"[2.6, 2.6]",1,0,9,9,0,,,,,30,0,30,0,left,0.425456654106,MB,f,20,60.0067744881,Set,2017_12_15_1535,
"[2.6, 2.6]",1,0,9,9,0,,,,,31,0,31,0,left,0.508787684754,MB,f,20,60.0067744881,Set,2017_12_15_1535,
"[2.6, 2.6]",1,0,9,9,0,,,,,32,0,32,0,down,0.858785197895,MB,f,20,60.0067744881,Set,2017_12_15_1535,
"[2.6, 2.6]",1,0,9,9,0,,,,,33,0,33,0,right,0.29211729439,MB,f,20,60.0067744881,Set,2017_12_15_1535,
"[2.6, 2.6]",1,0,9,9,0,,,,,34,0,34,0,left,0.42545073299,MB,f,20,60.0067744881,Set,2017_12_15_1535,
"[2.6, 2.6]",1,0,9,9,0,,,,,35,0,35,0,down,0.633558834699,MB,f,20,60.0067744881,Set,2017_12_15_1535,
"[2.6, 2.6]",1,0,9,9,0,,,,,36,0,36,0,down,0.642136912938,MB,f,20,60.0067744881,Set,2017_12_15_1535,
"[2.6, 2.6]",1,0,9,9,0,,,,,37,0,37,0,left,0.392064083542,MB,f,20,60.0067744881,Set,2017_12_15_1535,
"[2.6, 2.6]",1,0,9,9,0,,,,,38,0,38,0,down,0.608614078432,MB,f,20,60.0067744881,Set,2017_12_15_1535,
"[2.6, 2.6]",1,0,9,9,0,,,,,39,0,39,0,left,0.442133597127,MB,f,20,60.0067744881,Set,2017_12_15_1535,
"[2.6, 2.6]",1,0,9,9,0,,,,,40,0,40,0,left,0.64210928118,MB,f,20,60.0067744881,Set,2017_12_15_1535,
"[2.6, 2.6]",1,0,9,9,0,,,,,41,0,41,0,left,0.442150176183,MB,f,20,60.0067744881,Set,2017_12_15_1535,
"[2.6, 2.6]",1,0,9,9,0,,,,,42,0,42,0,down,0.458788829506,MB,f,20,60.0067744881,Set,2017_12_15_1535,
"[2.6, 2.6]",1,0,9,9,0,,,,,43,0,43,0,left,0.425443232933,MB,f,20,60.0067744881,Set,2017_12_15_1535,
"[2.6, 2.6]",1,0,9,9,0,,,,,44,0,44,0,left,0.542126965505,MB,f,20,60.0067744881,Set,2017_12_15_1535,
"[2.6, 2.6]",1,0,9,9,0,,,,,45,0,45,0,left,0.525478443684,MB,f,20,60.0067744881,Set,2017_12_15_1535,
"[2.6, 2.6]",1,0,9,9,0,,,,,46,0,46,0,left,0.592116741755,MB,f,20,60.0067744881,Set,2017_12_15_1535,
"[2.6, 2.6]",1,0,9,9,0,,,,,47,0,47,0,down,0.475466167292,MB,f,20,60.0067744881,Set,2017_12_15_1535,
"[2.6, 2.6]",1,0,9,9,0,,,,,48,0,48,0,left,0.508818869159,MB,f,20,60.0067744881,Set,2017_12_15_1535,
"[2.6, 2.6]",1,0,9,9,0,,,,,49,0,49,0,down,0.591963582934,MB,f,20,60.0067744881,Set,2017_12_15_1535,
"[2.6, 2.6]",1,0,9,9,0,,,,,50,0,50,0,left,0.492144689284,MB,f,20,60.0067744881,Set,2017_12_15_1535,
"[2.6, 2.6]",1,0,9,9,0,,,,,51,0,51,0,left,0.658789776877,MB,f,20,60.0067744881,Set,2017_12_15_1535,
"[2.6, 2.6]",1,0,9,9,0,,,,,52,0,52,0,down,0.442193597468,MB,f,20,60.0067744881,Set,2017_12_15_1535,
"[2.6, 2.6]",1,0,9,9,0,,,,,53,0,53,0,down,0.525472522597,MB,f,20,60.0067744881,Set,2017_12_15_1535,
"[2.9, 2.9]",2,0,10,10,19,,,,,0,0,0,0,left,1.41690028651,MB,f,20,60.0067744881,Set,2017_12_15_1535,
"[2.9, 2.9]",2,0,10,10,19,,,,,1,0,1,0,right,0.458778961009,MB,f,20,60.0067744881,Set,2017_12_15_1535,
"[2.9, 2.9]",2,0,10,10,19,,,,,2,0,2,0,left,0.442133202363,MB,f,20,60.0067744881,Set,2017_12_15_1535,
"[2.9, 2.9]",2,0,10,10,19,,,,,3,0,3,0,right,0.308805290144,MB,f,20,60.0067744881,Set,2017_12_15_1535,
"[2.9, 2.9]",2,0,10,10,19,,,,,4,0,4,0,down,0.425453890901,MB,f,20,60.0067744881,Set,2017_12_15_1535,
"[2.9, 2.9]",2,0,10,10,19,,,,,5,0,5,0,down,0.458808171708,MB,f,20,60.0067744881,Set,2017_12_15_1535,
"[2.9, 2.9]",6,0,11,11,23,,,,,0,0,0,0,left,1.70876889519,MB,f,20,60.0067744881,Set,2017_12_15_1535,
"[2.9, 2.9]",6,0,11,11,23,,,,,1,0,1,0,down,0.475448404002,MB,f,20,60.0067744881,Set,2017_12_15_1535,
"[2.9, 2.9]",6,0,11,11,23,,,,,2,0,2,0,down,0.35878243472,MB,f,20,60.0067744881,Set,2017_12_15_1535,
"[3.0, 3.0]",3,0,12,12,26,,,,,0,0,0,0,down,1.22542846971,MB,f,20,60.0067744881,Set,2017_12_15_1535,
"[3.0, 3.0]",3,0,12,12,26,,,,,1,0,1,0,right,1.07543427238,MB,f,20,60.0067744881,Set,2017_12_15_1535,
"[3.0, 3.0]",3,0,12,12,26,,,,,2,0,2,0,right,0.875522141316,MB,f,20,60.0067744881,Set,2017_12_15_1535,
"[3.0, 3.0]",3,0,12,12,26,,,,,3,0,3,0,down,0.358802961186,MB,f,20,60.0067744881,Set,2017_12_15_1535,
"[3.0, 3.0]",3,0,12,12,26,,,,,4,0,4,0,down,0.325445917173,MB,f,20,60.0067744881,Set,2017_12_15_1535,
"[3.0, 3.0]",5,0,13,13,28,,,,,0,0,0,0,down,0.958788040036,MB,f,20,60.0067744881,Set,2017_12_15_1535,
"[3.0, 3.0]",5,0,13,13,28,,,,,1,0,1,0,down,0.342138255044,MB,f,20,60.0067744881,Set,2017_12_15_1535,
"[2.7, 2.7]",1,0,14,14,6,,,,,0,0,0,0,right,0.942126491806,MB,f,20,60.0067744881,Set,2017_12_15_1535,
"[2.7, 2.7]",1,0,14,14,6,,,,,1,0,1,0,down,0.47544524612,MB,f,20,60.0067744881,Set,2017_12_15_1535,
"[2.7, 2.7]",1,0,14,14,6,,,,,2,0,2,0,down,0.408773000468,MB,f,20,60.0067744881,Set,2017_12_15_1535,
"[2.6, 2.6]",2,0,15,15,1,,,,,0,0,0,0,right,0.742129886581,MB,f,20,60.0067744881,Set,2017_12_15_1535,
"[2.6, 2.6]",2,0,15,15,1,,,,,1,0,1,0,down,0.925472443632,MB,f,20,60.0067744881,Set,2017_12_15_1535,
"[2.6, 2.6]",2,0,15,15,1,,,,,2,0,2,0,down,0.45880225065,MB,f,20,60.0067744881,Set,2017_12_15_1535,
"[2.6, 2.6]",6,0,16,16,5,,,,,0,0,0,0,right,1.06691185237,MB,f,20,60.0067744881,Set,2017_12_15_1535,
"[2.6, 2.6]",6,0,16,16,5,,,,,1,0,1,0,right,0.458799487475,MB,f,20,60.0067744881,Set,2017_12_15_1535,
"[2.6, 2.6]",6,0,16,16,5,,,,,2,0,2,0,right,0.275414693286,MB,f,20,60.0067744881,Set,2017_12_15_1535,
"[2.6, 2.6]",6,0,16,16,5,,,,,3,0,3,0,right,0.275432851311,MB,f,20,60.0067744881,Set,2017_12_15_1535,
"[2.6, 2.6]",6,0,16,16,5,,,,,4,0,4,0,down,0.358792697953,MB,f,20,60.0067744881,Set,2017_12_15_1535,
"[2.6, 2.6]",6,0,16,16,5,,,,,5,0,5,0,down,0.375448719831,MB,f,20,60.0067744881,Set,2017_12_15_1535,
"[2.9, 2.9]",3,0,17,17,20,,,,,0,0,0,0,right,0.816893891722,MB,f,20,60.0067744881,Set,2017_12_15_1535,
"[2.9, 2.9]",3,0,17,17,20,,,,,1,0,1,0,right,0.592137268191,MB,f,20,60.0067744881,Set,2017_12_15_1535,
"[2.9, 2.9]",3,0,17,17,20,,,,,2,0,2,0,left,0.675436325022,MB,f,20,60.0067744881,Set,2017_12_15_1535,
"[2.9, 2.9]",3,0,17,17,20,,,,,3,0,3,0,down,0.391978030384,MB,f,20,60.0067744881,Set,2017_12_15_1535,
"[2.9, 2.9]",3,0,17,17,20,,,,,4,0,4,0,down,0.225445443473,MB,f,20,60.0067744881,Set,2017_12_15_1535,
"[2.9, 2.9]",3,0,17,17,20,,,,,5,0,5,0,right,0.80877568468,MB,f,20,60.0067744881,Set,2017_12_15_1535,
"[2.9, 2.9]",3,0,17,17,20,,,,,6,0,6,0,right,0.492106004851,MB,f,20,60.0067744881,Set,2017_12_15_1535,
"[2.9, 2.9]",3,0,17,17,20,,,,,7,0,7,0,down,0.558777855767,MB,f,20,60.0067744881,Set,2017_12_15_1535,
"[2.9, 2.9]",3,0,17,17,20,,,,,8,0,8,0,down,0.108794474276,MB,f,20,60.0067744881,Set,2017_12_15_1535,
"[2.9, 2.9]",1,0,18,18,18,,,,,0,0,0,0,right,2.42543849608,MB,f,20,60.0067744881,Set,2017_12_15_1535,
"[2.9, 2.9]",1,0,18,18,18,,,,,1,0,1,0,down,1.07544650929,MB,f,20,60.0067744881,Set,2017_12_15_1535,
"[2.9, 2.9]",1,0,18,18,18,,,,,2,0,2,0,down,0.758824987628,MB,f,20,60.0067744881,Set,2017_12_15_1535,
"[2.9, 2.9]",1,0,18,18,18,,,,,3,0,3,0,right,0.458797908504,MB,f,20,60.0067744881,Set,2017_12_15_1535,
"[2.9, 2.9]",1,0,18,18,18,,,,,4,0,4,0,right,0.292122820741,MB,f,20,60.0067744881,Set,2017_12_15_1535,
"[2.9, 2.9]",1,0,18,18,18,,,,,5,0,5,0,right,0.242120018112,MB,f,20,60.0067744881,Set,2017_12_15_1535,
"[2.9, 2.9]",1,0,18,18,18,,,,,6,0,6,0,down,0.442123728659,MB,f,20,60.0067744881,Set,2017_12_15_1535,
"[2.9, 2.9]",1,0,18,18,18,,,,,7,0,7,0,down,0.325446311908,MB,f,20,60.0067744881,Set,2017_12_15_1535,
"[2.7, 2.7]",3,0,19,19,8,,,,,0,0,0,0,right,1.17545961461,MB,f,20,60.0067744881,Set,2017_12_15_1535,
"[2.7, 2.7]",3,0,19,19,8,,,,,1,0,1,0,right,0.525489496387,MB,f,20,60.0067744881,Set,2017_12_15_1535,
"[2.7, 2.7]",3,0,19,19,8,,,,,2,0,2,0,right,0.508818474424,MB,f,20,60.0067744881,Set,2017_12_15_1535,
"[2.7, 2.7]",3,0,19,19,8,,,,,3,0,3,0,right,0.658798066404,MB,f,20,60.0067744881,Set,2017_12_15_1535,
"[2.7, 2.7]",3,0,19,19,8,,,,,4,0,4,0,down,0.408740631858,MB,f,20,60.0067744881,Set,2017_12_15_1535,
"[2.7, 2.7]",3,0,19,19,8,,,,,5,0,5,0,left,0.475466562057,MB,f,20,60.0067744881,Set,2017_12_15_1535,
"[2.7, 2.7]",3,0,19,19,8,,,,,6,0,6,0,down,0.358769013605,MB,f,20,60.0067744881,Set,2017_12_15_1535,
"[2.7, 2.7]",3,0,19,19,8,,,,,7,0,7,0,down,0.392135136615,MB,f,20,60.0067744881,Set,2017_12_15_1535,
"[2.8, 2.8]",3,0,20,20,14,,,,,0,0,0,0,left,1.20879336903,MB,f,20,60.0067744881,Set,2017_12_15_1535,
"[2.8, 2.8]",3,0,20,20,14,,,,,1,0,1,0,down,0.458793171652,MB,f,20,60.0067744881,Set,2017_12_15_1535,
"[2.8, 2.8]",3,0,20,20,14,,,,,2,0,2,0,down,0.125460364623,MB,f,20,60.0067744881,Set,2017_12_15_1535,
"[2.8, 2.8]",1,0,21,21,12,,,,,0,0,0,0,right,1.04214670247,MB,f,20,60.0067744881,Set,2017_12_15_1535,
"[2.8, 2.8]",1,0,21,21,12,,,,,1,0,1,0,down,0.575454009318,MB,f,20,60.0067744881,Set,2017_12_15_1535,
"[2.8, 2.8]",1,0,21,21,12,,,,,2,0,2,0,down,0.425481917366,MB,f,20,60.0067744881,Set,2017_12_15_1535,
"[2.8, 2.8]",1,0,21,21,12,,,,,3,0,3,0,right,0.792131505004,MB,f,20,60.0067744881,Set,2017_12_15_1535,
"[2.8, 2.8]",1,0,21,21,12,,,,,4,0,4,0,left,0.642136912938,MB,f,20,60.0067744881,Set,2017_12_15_1535,
"[2.8, 2.8]",1,0,21,21,12,,,,,5,0,5,0,left,0.892083820509,MB,f,20,60.0067744881,Set,2017_12_15_1535,
"[2.8, 2.8]",1,0,21,21,12,,,,,6,0,6,0,down,0.392106715386,MB,f,20,60.0067744881,Set,2017_12_15_1535,
"[2.8, 2.8]",1,0,21,21,12,,,,,7,0,7,0,left,0.475451167207,MB,f,20,60.0067744881,Set,2017_12_15_1535,
"[2.8, 2.8]",1,0,21,21,12,,,,,8,0,8,0,left,0.308792263735,MB,f,20,60.0067744881,Set,2017_12_15_1535,
"[2.8, 2.8]",1,0,21,21,12,,,,,9,0,9,0,left,1.30878397421,MB,f,20,60.0067744881,Set,2017_12_15_1535,
"[2.8, 2.8]",1,0,21,21,12,,,,,10,0,10,0,down,0.475475641026,MB,f,20,60.0067744881,Set,2017_12_15_1535,
"[2.8, 2.8]",1,0,21,21,12,,,,,11,0,11,0,right,0.575482825283,MB,f,20,60.0067744881,Set,2017_12_15_1535,
"[2.8, 2.8]",1,0,21,21,12,,,,,12,0,12,0,left,0.625454048801,MB,f,20,60.0067744881,Set,2017_12_15_1535,
"[2.8, 2.8]",1,0,21,21,12,,,,,13,0,13,0,left,0.458814882295,MB,f,20,60.0067744881,Set,2017_12_15_1535,
"[2.8, 2.8]",1,0,21,21,12,,,,,14,0,14,0,left,0.392122110206,MB,f,20,60.0067744881,Set,2017_12_15_1535,
"[2.8, 2.8]",1,0,21,21,12,,,,,15,0,15,0,left,0.342129570781,MB,f,20,60.0067744881,Set,2017_12_15_1535,
"[2.8, 2.8]",1,0,21,21,12,,,,,16,0,16,0,left,0.32545104876,MB,f,20,60.0067744881,Set,2017_12_15_1535,
"[2.8, 2.8]",1,0,21,21,12,,,,,17,0,17,0,left,0.475406561687,MB,f,20,60.0067744881,Set,2017_12_15_1535,
"[2.8, 2.8]",1,0,21,21,12,,,,,18,0,18,0,left,0.342102333787,MB,f,20,60.0067744881,Set,2017_12_15_1535,
"[2.8, 2.8]",1,0,21,21,12,,,,,19,0,19,0,left,0.275439956604,MB,f,20,60.0067744881,Set,2017_12_15_1535,
"[2.8, 2.8]",1,0,21,21,12,,,,,20,0,20,0,left,0.292107425921,MB,f,20,60.0067744881,Set,2017_12_15_1535,
"[2.8, 2.8]",1,0,21,21,12,,,,,21,0,21,0,left,0.392132768146,MB,f,20,60.0067744881,Set,2017_12_15_1535,
"[2.8, 2.8]",1,0,21,21,12,,,,,22,0,22,0,left,0.592157399922,MB,f,20,60.0067744881,Set,2017_12_15_1535,
"[2.8, 2.8]",1,0,21,21,12,,,,,23,0,23,0,left,0.492129689199,MB,f,20,60.0067744881,Set,2017_12_15_1535,
"[2.8, 2.8]",1,0,21,21,12,,,,,24,0,24,0,left,0.258801698015,MB,f,20,60.0067744881,Set,2017_12_15_1535,
"[2.8, 2.8]",1,0,21,21,12,,,,,25,0,25,0,down,0.358624144283,MB,f,20,60.0067744881,Set,2017_12_15_1535,
"[2.8, 2.8]",1,0,21,21,12,,,,,26,0,26,0,down,0.358799013804,MB,f,20,60.0067744881,Set,2017_12_15_1535,
"[2.9, 2.9]",5,0,22,22,22,,,,,0,0,0,0,down,0.99211982073,MB,f,20,60.0067744881,Set,2017_12_15_1535,
"[2.9, 2.9]",5,0,22,22,22,,,,,1,0,1,0,down,0.408788395289,MB,f,20,60.0067744881,Set,2017_12_15_1535,
"[2.6, 2.6]",4,0,23,23,3,,,,,0,0,0,0,down,0.692121162836,MB,f,20,60.0067744881,Set,2017_12_15_1535,
"[2.6, 2.6]",4,0,23,23,3,,,,,1,0,1,0,down,0.375446746126,MB,f,20,60.0067744881,Set,2017_12_15_1535,
"[3.0, 3.0]",2,0,24,24,25,,,,,0,0,0,0,right,1.13353396615,MB,f,20,60.0067744881,Set,2017_12_15_1535,
"[3.0, 3.0]",2,0,24,24,25,,,,,1,0,1,0,right,0.475485509523,MB,f,20,60.0067744881,Set,2017_12_15_1535,
"[3.0, 3.0]",2,0,24,24,25,,,,,2,0,2,0,left,0.375460561976,MB,f,20,60.0067744881,Set,2017_12_15_1535,
"[3.0, 3.0]",2,0,24,24,25,,,,,3,0,3,0,left,0.308805290144,MB,f,20,60.0067744881,Set,2017_12_15_1535,
"[3.0, 3.0]",2,0,24,24,25,,,,,4,0,4,0,left,0.458793961123,MB,f,20,60.0067744881,Set,2017_12_15_1535,
"[3.0, 3.0]",2,0,24,24,25,,,,,5,0,5,0,down,0.892208163365,MB,f,20,60.0067744881,Set,2017_12_15_1535,
"[3.0, 3.0]",2,0,24,24,25,,,,,6,0,6,0,left,0.34223101876,MB,f,20,60.0067744881,Set,2017_12_15_1535,
"[3.0, 3.0]",2,0,24,24,25,,,,,7,0,7,0,left,1.14210020218,MB,f,20,60.0067744881,Set,2017_12_15_1535,
"[3.0, 3.0]",2,0,24,24,25,,,,,8,0,8,0,down,0.392126452352,MB,f,20,60.0067744881,Set,2017_12_15_1535,
"[3.0, 3.0]",2,0,24,24,25,,,,,9,0,9,0,down,0.325469601521,MB,f,20,60.0067744881,Set,2017_12_15_1535,
"[3.0, 3.0]",2,0,24,24,25,,,,,10,0,10,0,left,0.308804500644,MB,f,20,60.0067744881,Set,2017_12_15_1535,
"[3.0, 3.0]",2,0,24,24,25,,,,,11,0,11,0,left,0.292127162887,MB,f,20,60.0067744881,Set,2017_12_15_1535,
"[3.0, 3.0]",2,0,24,24,25,,,,,12,0,12,0,right,0.325478680519,MB,f,20,60.0067744881,Set,2017_12_15_1535,
"[3.0, 3.0]",2,0,24,24,25,,,,,13,0,13,0,down,0.492131268169,MB,f,20,60.0067744881,Set,2017_12_15_1535,
"[3.0, 3.0]",2,0,24,24,25,,,,,14,0,14,0,down,0.242153176194,MB,f,20,60.0067744881,Set,2017_12_15_1535,
"[2.6, 2.6]",3,0,25,25,2,,,,,0,0,0,0,down,0.742116070702,MB,f,20,60.0067744881,Set,2017_12_15_1535,
"[2.6, 2.6]",3,0,25,25,2,,,,,1,0,1,0,down,0.325455390906,MB,f,20,60.0067744881,Set,2017_12_15_1535,
"[3.0, 3.0]",1,0,26,26,24,,,,,0,0,0,0,down,1.00876834255,MB,f,20,60.0067744881,Set,2017_12_15_1535,
"[3.0, 3.0]",1,0,26,26,24,,,,,1,0,1,0,down,0.408792737406,MB,f,20,60.0067744881,Set,2017_12_15_1535,
"[2.8, 2.8]",4,0,27,27,15,,,,,0,0,0,0,down,0.966903878638,MB,f,20,60.0067744881,Set,2017_12_15_1535,
"[2.8, 2.8]",4,0,27,27,15,,,,,1,0,1,0,left,0.37545937777,MB,f,20,60.0067744881,Set,2017_12_15_1535,
"[2.8, 2.8]",4,0,27,27,15,,,,,2,0,2,0,left,0.342150491982,MB,f,20,60.0067744881,Set,2017_12_15_1535,
"[2.8, 2.8]",4,0,27,27,15,,,,,3,0,3,0,left,0.442080307344,MB,f,20,60.0067744881,Set,2017_12_15_1535,
"[2.8, 2.8]",4,0,27,27,15,,,,,4,0,4,0,down,0.442201492289,MB,f,20,60.0067744881,Set,2017_12_15_1535,
"[2.8, 2.8]",4,0,27,27,15,,,,,5,0,5,0,left,0.392103162711,MB,f,20,60.0067744881,Set,2017_12_15_1535,
"[2.8, 2.8]",4,0,27,27,15,,,,,6,0,6,0,down,0.392144215613,MB,f,20,60.0067744881,Set,2017_12_15_1535,
"[2.8, 2.8]",4,0,27,27,15,,,,,7,0,7,0,down,0.342118518078,MB,f,20,60.0067744881,Set,2017_12_15_1535,
"[3.0, 3.0]",4,0,28,28,27,,,,,0,0,0,0,left,1.29211887336,MB,f,20,60.0067744881,Set,2017_12_15_1535,
"[3.0, 3.0]",4,0,28,28,27,,,,,1,0,1,0,down,0.392115004885,MB,f,20,60.0067744881,Set,2017_12_15_1535,
"[3.0, 3.0]",4,0,28,28,27,,,,,2,0,2,0,down,0.242146465636,MB,f,20,60.0067744881,Set,2017_12_15_1535,
"[3.0, 3.0]",6,0,29,29,29,,,,,0,0,0,0,left,0.608799605892,MB,f,20,60.0067744881,Set,2017_12_15_1535,
"[3.0, 3.0]",6,0,29,29,29,,,,,1,0,1,0,left,1.17550500965,MB,f,20,60.0067744881,Set,2017_12_15_1535,
"[3.0, 3.0]",6,0,29,29,29,,,,,2,0,2,0,left,0.44212688657,MB,f,20,60.0067744881,Set,2017_12_15_1535,
"[3.0, 3.0]",6,0,29,29,29,,,,,3,0,3,0,left,0.225453733001,MB,f,20,60.0067744881,Set,2017_12_15_1535,
"[3.0, 3.0]",6,0,29,29,29,,,,,4,0,4,0,left,0.458806987503,MB,f,20,60.0067744881,Set,2017_12_15_1535,
"[3.0, 3.0]",6,0,29,29,29,,,,,5,0,5,0,left,0.42546612781,MB,f,20,60.0067744881,Set,2017_12_15_1535,
"[3.0, 3.0]",6,0,29,29,29,,,,,6,0,6,0,left,0.29214887353,MB,f,20,60.0067744881,Set,2017_12_15_1535,
"[3.0, 3.0]",6,0,29,29,29,,,,,7,0,7,0,down,0.508793211135,MB,f,20,60.0067744881,Set,2017_12_15_1535,
"[3.0, 3.0]",6,0,29,29,29,,,,,8,0,8,0,left,0.558799171675,MB,f,20,60.0067744881,Set,2017_12_15_1535,
"[3.0, 3.0]",6,0,29,29,29,,,,,9,0,9,0,left,0.408625368,MB,f,20,60.0067744881,Set,2017_12_15_1535,
"[3.0, 3.0]",6,0,29,29,29,,,,,10,0,10,0,down,0.425428627612,MB,f,20,60.0067744881,Set,2017_12_15_1535,
"[3.0, 3.0]",6,0,29,29,29,,,,,11,0,11,0,left,0.292121241771,MB,f,20,60.0067744881,Set,2017_12_15_1535,
"[3.0, 3.0]",6,0,29,29,29,,,,,12,0,12,0,left,0.408807342785,MB,f,20,60.0067744881,Set,2017_12_15_1535,
"[3.0, 3.0]",6,0,29,29,29,,,,,13,0,13,0,left,0.208800079592,MB,f,20,60.0067744881,Set,2017_12_15_1535,
"[3.0, 3.0]",6,0,29,29,29,,,,,14,0,14,0,left,0.408779316291,MB,f,20,60.0067744881,Set,2017_12_15_1535,
"[3.0, 3.0]",6,0,29,29,29,,,,,15,0,15,0,left,0.975453930383,MB,f,20,60.0067744881,Set,2017_12_15_1535,
"[3.0, 3.0]",6,0,29,29,29,,,,,16,0,16,0,left,0.292102294305,MB,f,20,60.0067744881,Set,2017_12_15_1535,
"[3.0, 3.0]",6,0,29,29,29,,,,,17,0,17,0,left,0.208800869063,MB,f,20,60.0067744881,Set,2017_12_15_1535,
"[3.0, 3.0]",6,0,29,29,29,,,,,18,0,18,0,left,0.258800908545,MB,f,20,60.0067744881,Set,2017_12_15_1535,
"[3.0, 3.0]",6,0,29,29,29,,,,,19,0,19,0,left,0.29214808406,MB,f,20,60.0067744881,Set,2017_12_15_1535,
"[3.0, 3.0]",6,0,29,29,29,,,,,20,0,20,0,left,0.208810342825,MB,f,20,60.0067744881,Set,2017_12_15_1535,
"[3.0, 3.0]",6,0,29,29,29,,,,,21,0,21,0,left,0.34212720237,MB,f,20,60.0067744881,Set,2017_12_15_1535,
"[3.0, 3.0]",6,0,29,29,29,,,,,22,0,22,0,left,0.175480141072,MB,f,20,60.0067744881,Set,2017_12_15_1535,
"[3.0, 3.0]",6,0,29,29,29,,,,,23,0,23,0,left,0.292141768237,MB,f,20,60.0067744881,Set,2017_12_15_1535,
"[3.0, 3.0]",6,0,29,29,29,,,,,24,0,24,0,left,0.14211164962,MB,f,20,60.0067744881,Set,2017_12_15_1535,
"[3.0, 3.0]",6,0,29,29,29,,,,,25,0,25,0,left,0.125473391032,MB,f,20,60.0067744881,Set,2017_12_15_1535,
"[3.0, 3.0]",6,0,29,29,29,,,,,26,0,26,0,down,0.108788947953,MB,f,20,60.0067744881,Set,2017_12_15_1535,
"[3.0, 3.0]",6,0,29,29,29,,,,,27,0,27,0,down,0.275462062011,MB,f,20,60.0067744881,Set,2017_12_15_1535,
"[3.0, 3.0]",6,0,29,29,29,,,,,28,0,28,0,left,0.225450969825,MB,f,20,60.0067744881,Set,2017_12_15_1535,
"[3.0, 3.0]",6,0,29,29,29,,,,,29,0,29,0,left,0.275448640867,MB,f,20,60.0067744881,Set,2017_12_15_1535,
"[3.0, 3.0]",6,0,29,29,29,,,,,30,0,30,0,left,0.208922448743,MB,f,20,60.0067744881,Set,2017_12_15_1535,
"[3.0, 3.0]",6,0,29,29,29,,,,,31,0,31,0,left,0.325498417486,MB,f,20,60.0067744881,Set,2017_12_15_1535,
"[3.0, 3.0]",6,0,29,29,29,,,,,32,0,32,0,left,0.175456456695,MB,f,20,60.0067744881,Set,2017_12_15_1535,
"[3.0, 3.0]",6,0,29,29,29,,,,,33,0,33,0,down,0.35876940834,MB,f,20,60.0067744881,Set,2017_12_15_1535,
"[3.0, 3.0]",6,0,29,29,29,,,,,34,0,34,0,down,0.242133833963,MB,f,20,60.0067744881,Set,2017_12_15_1535,
