size,n,trials_2.thisRepN,trials_2.thisTrialN,trials_2.thisN,trials_2.thisIndex,trials.thisRepN,trials.thisTrialN,trials.thisN,trials.thisIndex,trials_3.thisRepN,trials_3.thisTrialN,trials_3.thisN,trials_3.thisIndex,answer.keys,answer.rt,participant,gender,age,frameRate,expName,date,
"[2.7, 2.7]",5,0,0,0,10,,,,,0,0,0,0,down,6.80886094837,MO,f,26,59.9989579048,Set,2017_12_14_1943,
"[2.7, 2.7]",5,0,0,0,10,,,,,1,0,1,0,down,3.98361319028,MO,f,26,59.9989579048,Set,2017_12_14_1943,
"[3.0, 3.0]",6,0,1,1,29,,,,,0,0,0,0,down,5.56686882579,MO,f,26,59.9989579048,Set,2017_12_14_1943,
"[3.0, 3.0]",6,0,1,1,29,,,,,1,0,1,0,down,1.25034954159,MO,f,26,59.9989579048,Set,2017_12_14_1943,
"[2.7, 2.7]",1,0,2,2,6,,,,,0,0,0,0,right,2.43353972932,MO,f,26,59.9989579048,Set,2017_12_14_1943,
"[2.7, 2.7]",1,0,2,2,6,,,,,1,0,1,0,down,1.13363659833,MO,f,26,59.9989579048,Set,2017_12_14_1943,
"[2.7, 2.7]",1,0,2,2,6,,,,,2,0,2,0,right,7.69149826434,MO,f,26,59.9989579048,Set,2017_12_14_1943,
"[2.7, 2.7]",1,0,2,2,6,,,,,3,0,3,0,down,1.35038041019,MO,f,26,59.9989579048,Set,2017_12_14_1943,
"[2.7, 2.7]",1,0,2,2,6,,,,,4,0,4,0,down,0.866989852846,MO,f,26,59.9989579048,Set,2017_12_14_1943,
"[2.7, 2.7]",1,0,2,2,6,,,,,5,0,5,0,right,1.93357644007,MO,f,26,59.9989579048,Set,2017_12_14_1943,
"[2.7, 2.7]",1,0,2,2,6,,,,,6,0,6,0,down,0.916892786467,MO,f,26,59.9989579048,Set,2017_12_14_1943,
"[2.7, 2.7]",1,0,2,2,6,,,,,7,0,7,0,right,1.05030359395,MO,f,26,59.9989579048,Set,2017_12_14_1943,
"[2.7, 2.7]",1,0,2,2,6,,,,,8,0,8,0,right,0.766929773512,MO,f,26,59.9989579048,Set,2017_12_14_1943,
"[2.7, 2.7]",1,0,2,2,6,,,,,9,0,9,0,right,1.08359905863,MO,f,26,59.9989579048,Set,2017_12_14_1943,
"[2.7, 2.7]",1,0,2,2,6,,,,,10,0,10,0,right,0.716946313085,MO,f,26,59.9989579048,Set,2017_12_14_1943,
"[2.7, 2.7]",1,0,2,2,6,,,,,11,0,11,0,down,0.900254133114,MO,f,26,59.9989579048,Set,2017_12_14_1943,
"[2.7, 2.7]",1,0,2,2,6,,,,,12,0,12,0,down,0.733663914274,MO,f,26,59.9989579048,Set,2017_12_14_1943,
"[2.8, 2.8]",2,0,3,3,13,,,,,0,0,0,0,down,1.00008052681,MO,f,26,59.9989579048,Set,2017_12_14_1943,
"[2.8, 2.8]",2,0,3,3,13,,,,,1,0,1,0,down,0.867002484491,MO,f,26,59.9989579048,Set,2017_12_14_1943,
"[2.8, 2.8]",2,0,3,3,13,,,,,2,0,2,0,right,1.70883126397,MO,f,26,59.9989579048,Set,2017_12_14_1943,
"[2.8, 2.8]",2,0,3,3,13,,,,,3,0,3,0,left,2.43354288723,MO,f,26,59.9989579048,Set,2017_12_14_1943,
"[2.8, 2.8]",2,0,3,3,13,,,,,4,0,4,0,down,0.733738125258,MO,f,26,59.9989579048,Set,2017_12_14_1943,
"[2.8, 2.8]",2,0,3,3,13,,,,,5,0,5,0,down,0.775459298835,MO,f,26,59.9989579048,Set,2017_12_14_1943,
"[2.8, 2.8]",2,0,3,3,13,,,,,6,0,6,0,right,1.29218597902,MO,f,26,59.9989579048,Set,2017_12_14_1943,
"[2.8, 2.8]",2,0,3,3,13,,,,,7,0,7,0,down,0.958783303155,MO,f,26,59.9989579048,Set,2017_12_14_1943,
"[2.8, 2.8]",2,0,3,3,13,,,,,8,0,8,0,down,0.725537417718,MO,f,26,59.9989579048,Set,2017_12_14_1943,
"[2.6, 2.6]",5,0,4,4,4,,,,,0,0,0,0,right,1.43361512452,MO,f,26,59.9989579048,Set,2017_12_14_1943,
"[2.6, 2.6]",5,0,4,4,4,,,,,1,0,1,0,down,0.933596177027,MO,f,26,59.9989579048,Set,2017_12_14_1943,
"[2.6, 2.6]",5,0,4,4,4,,,,,2,0,2,0,right,1.44166109427,MO,f,26,59.9989579048,Set,2017_12_14_1943,
"[2.6, 2.6]",5,0,4,4,4,,,,,3,0,3,0,right,0.900317291394,MO,f,26,59.9989579048,Set,2017_12_14_1943,
"[2.6, 2.6]",5,0,4,4,4,,,,,4,0,4,0,right,2.06693593145,MO,f,26,59.9989579048,Set,2017_12_14_1943,
"[2.6, 2.6]",5,0,4,4,4,,,,,5,0,5,0,down,0.783614216605,MO,f,26,59.9989579048,Set,2017_12_14_1943,
"[2.6, 2.6]",5,0,4,4,4,,,,,6,0,6,0,down,0.733597203347,MO,f,26,59.9989579048,Set,2017_12_14_1943,
"[3.0, 3.0]",3,0,5,5,26,,,,,0,0,0,0,down,0.825498417486,MO,f,26,59.9989579048,Set,2017_12_14_1943,
"[3.0, 3.0]",3,0,5,5,26,,,,,1,0,1,0,down,0.816861917847,MO,f,26,59.9989579048,Set,2017_12_14_1943,
"[3.0, 3.0]",3,0,5,5,26,,,,,2,0,2,0,right,0.9087623425,MO,f,26,59.9989579048,Set,2017_12_14_1943,
"[3.0, 3.0]",3,0,5,5,26,,,,,3,0,3,0,down,1.45878882951,MO,f,26,59.9989579048,Set,2017_12_14_1943,
"[3.0, 3.0]",3,0,5,5,26,,,,,4,0,4,0,down,1.5335623084,MO,f,26,59.9989579048,Set,2017_12_14_1943,
"[2.8, 2.8]",1,0,6,6,12,,,,,0,0,0,0,down,1.14211757071,MO,f,26,59.9989579048,Set,2017_12_14_1943,
"[2.8, 2.8]",1,0,6,6,12,,,,,1,0,1,0,right,1.2087621846,MO,f,26,59.9989579048,Set,2017_12_14_1943,
"[2.8, 2.8]",1,0,6,6,12,,,,,2,0,2,0,down,0.75023546195,MO,f,26,59.9989579048,Set,2017_12_14_1943,
"[2.8, 2.8]",1,0,6,6,12,,,,,3,0,3,0,down,0.775477851581,MO,f,26,59.9989579048,Set,2017_12_14_1943,
"[2.7, 2.7]",2,0,7,7,7,,,,,0,0,0,0,right,0.892136715556,MO,f,26,59.9989579048,Set,2017_12_14_1943,
"[2.7, 2.7]",2,0,7,7,7,,,,,1,0,1,0,down,0.742161070972,MO,f,26,59.9989579048,Set,2017_12_14_1943,
"[2.7, 2.7]",2,0,7,7,7,,,,,2,0,2,0,down,0.625457996182,MO,f,26,59.9989579048,Set,2017_12_14_1943,
"[2.7, 2.7]",4,0,8,8,9,,,,,0,0,0,0,down,0.808855027281,MO,f,26,59.9989579048,Set,2017_12_14_1943,
"[2.7, 2.7]",4,0,8,8,9,,,,,1,0,1,0,down,0.775531141378,MO,f,26,59.9989579048,Set,2017_12_14_1943,
"[2.6, 2.6]",2,0,9,9,1,,,,,0,0,0,0,left,1.09200818847,MO,f,26,59.9989579048,Set,2017_12_14_1943,
"[2.6, 2.6]",2,0,9,9,1,,,,,1,0,1,0,left,1.59211792597,MO,f,26,59.9989579048,Set,2017_12_14_1943,
"[2.6, 2.6]",2,0,9,9,1,,,,,2,0,2,0,down,0.908817606003,MO,f,26,59.9989579048,Set,2017_12_14_1943,
"[2.6, 2.6]",2,0,9,9,1,,,,,3,0,3,0,down,0.842133912913,MO,f,26,59.9989579048,Set,2017_12_14_1943,
"[3.0, 3.0]",2,0,10,10,25,,,,,0,0,0,0,down,0.858815987565,MO,f,26,59.9989579048,Set,2017_12_14_1943,
"[3.0, 3.0]",2,0,10,10,25,,,,,1,0,1,0,down,2.02546502255,MO,f,26,59.9989579048,Set,2017_12_14_1943,
"[2.9, 2.9]",6,0,11,11,23,,,,,0,0,0,0,down,0.858881119537,MO,f,26,59.9989579048,Set,2017_12_14_1943,
"[2.9, 2.9]",6,0,11,11,23,,,,,1,0,1,0,right,1.29214413666,MO,f,26,59.9989579048,Set,2017_12_14_1943,
"[2.9, 2.9]",6,0,11,11,23,,,,,2,0,2,0,down,0.77553508876,MO,f,26,59.9989579048,Set,2017_12_14_1943,
"[2.9, 2.9]",6,0,11,11,23,,,,,3,0,3,0,right,0.97541248276,MO,f,26,59.9989579048,Set,2017_12_14_1943,
"[2.9, 2.9]",6,0,11,11,23,,,,,4,0,4,0,down,0.858783224219,MO,f,26,59.9989579048,Set,2017_12_14_1943,
"[2.9, 2.9]",6,0,11,11,23,,,,,5,0,5,0,down,0.575495062207,MO,f,26,59.9989579048,Set,2017_12_14_1943,
"[3.0, 3.0]",5,0,12,12,28,,,,,0,0,0,0,down,0.816919155041,MO,f,26,59.9989579048,Set,2017_12_14_1943,
"[3.0, 3.0]",5,0,12,12,28,,,,,1,0,1,0,down,0.925433364464,MO,f,26,59.9989579048,Set,2017_12_14_1943,
"[2.9, 2.9]",5,0,13,13,22,,,,,0,0,0,0,down,0.742147255092,MO,f,26,59.9989579048,Set,2017_12_14_1943,
"[2.9, 2.9]",5,0,13,13,22,,,,,1,0,1,0,down,0.825449469819,MO,f,26,59.9989579048,Set,2017_12_14_1943,
"[2.7, 2.7]",3,0,14,14,8,,,,,0,0,0,0,down,0.808789895309,MO,f,26,59.9989579048,Set,2017_12_14_1943,
"[2.7, 2.7]",3,0,14,14,8,,,,,1,0,1,0,down,0.725487285847,MO,f,26,59.9989579048,Set,2017_12_14_1943,
"[2.8, 2.8]",4,0,15,15,15,,,,,0,0,0,0,left,1.63348186054,MO,f,26,59.9989579048,Set,2017_12_14_1943,
"[2.8, 2.8]",4,0,15,15,15,,,,,1,0,1,0,down,0.800353133716,MO,f,26,59.9989579048,Set,2017_12_14_1943,
"[2.8, 2.8]",4,0,15,15,15,,,,,2,0,2,0,left,0.967055458488,MO,f,26,59.9989579048,Set,2017_12_14_1943,
"[2.8, 2.8]",4,0,15,15,15,,,,,3,0,3,0,left,1.13358844013,MO,f,26,59.9989579048,Set,2017_12_14_1943,
"[2.8, 2.8]",4,0,15,15,15,,,,,4,0,4,0,down,0.900083211032,MO,f,26,59.9989579048,Set,2017_12_14_1943,
"[2.8, 2.8]",4,0,15,15,15,,,,,5,0,5,0,down,0.842088912643,MO,f,26,59.9989579048,Set,2017_12_14_1943,
"[2.8, 2.8]",4,0,15,15,15,,,,,6,0,6,0,left,0.825463285699,MO,f,26,59.9989579048,Set,2017_12_14_1943,
"[2.8, 2.8]",4,0,15,15,15,,,,,7,0,7,0,left,0.975442482944,MO,f,26,59.9989579048,Set,2017_12_14_1943,
"[2.8, 2.8]",4,0,15,15,15,,,,,8,0,8,0,left,0.742189492201,MO,f,26,59.9989579048,Set,2017_12_14_1943,
"[2.8, 2.8]",4,0,15,15,15,,,,,9,0,9,0,left,1.02548199634,MO,f,26,59.9989579048,Set,2017_12_14_1943,
"[2.8, 2.8]",4,0,15,15,15,,,,,10,0,10,0,down,1.15877517153,MO,f,26,59.9989579048,Set,2017_12_14_1943,
"[2.8, 2.8]",4,0,15,15,15,,,,,11,0,11,0,down,1.1254449698,MO,f,26,59.9989579048,Set,2017_12_14_1943,
"[2.9, 2.9]",3,0,16,16,20,,,,,0,0,0,0,down,0.658858856259,MO,f,26,59.9989579048,Set,2017_12_14_1943,
"[2.9, 2.9]",3,0,16,16,20,,,,,1,0,1,0,left,0.725463996234,MO,f,26,59.9989579048,Set,2017_12_14_1943,
"[2.9, 2.9]",3,0,16,16,20,,,,,2,0,2,0,left,0.791970846141,MO,f,26,59.9989579048,Set,2017_12_14_1943,
"[2.9, 2.9]",3,0,16,16,20,,,,,3,0,3,0,left,0.625302863686,MO,f,26,59.9989579048,Set,2017_12_14_1943,
"[2.9, 2.9]",3,0,16,16,20,,,,,4,0,4,0,down,0.7253317586,MO,f,26,59.9989579048,Set,2017_12_14_1943,
"[2.9, 2.9]",3,0,16,16,20,,,,,5,0,5,0,left,1.14206546514,MO,f,26,59.9989579048,Set,2017_12_14_1943,
"[2.9, 2.9]",3,0,16,16,20,,,,,6,0,6,0,down,0.958803829606,MO,f,26,59.9989579048,Set,2017_12_14_1943,
"[2.9, 2.9]",3,0,16,16,20,,,,,7,0,7,0,left,0.458793566373,MO,f,26,59.9989579048,Set,2017_12_14_1943,
"[2.9, 2.9]",3,0,16,16,20,,,,,8,0,8,0,down,1.27544548297,MO,f,26,59.9989579048,Set,2017_12_14_1943,
"[2.9, 2.9]",3,0,16,16,20,,,,,9,0,9,0,down,0.733552203077,MO,f,26,59.9989579048,Set,2017_12_14_1943,
"[2.9, 2.9]",3,0,16,16,20,,,,,10,0,10,0,left,0.942120570733,MO,f,26,59.9989579048,Set,2017_12_14_1943,
"[2.9, 2.9]",3,0,16,16,20,,,,,11,0,11,0,down,0.958760803027,MO,f,26,59.9989579048,Set,2017_12_14_1943,
"[2.9, 2.9]",3,0,16,16,20,,,,,12,0,12,0,down,0.492121004936,MO,f,26,59.9989579048,Set,2017_12_14_1943,
"[2.9, 2.9]",3,0,16,16,20,,,,,13,0,13,0,left,0.725468733101,MO,f,26,59.9989579048,Set,2017_12_14_1943,
"[2.9, 2.9]",3,0,16,16,20,,,,,14,0,14,0,left,1.74213580767,MO,f,26,59.9989579048,Set,2017_12_14_1943,
"[2.9, 2.9]",3,0,16,16,20,,,,,15,0,15,0,down,0.408804579609,MO,f,26,59.9989579048,Set,2017_12_14_1943,
"[2.9, 2.9]",3,0,16,16,20,,,,,16,0,16,0,down,0.642134939233,MO,f,26,59.9989579048,Set,2017_12_14_1943,
"[3.0, 3.0]",1,0,17,17,24,,,,,0,0,0,0,left,1.00024986993,MO,f,26,59.9989579048,Set,2017_12_14_1943,
"[3.0, 3.0]",1,0,17,17,24,,,,,1,0,1,0,down,0.72530096893,MO,f,26,59.9989579048,Set,2017_12_14_1943,
"[3.0, 3.0]",1,0,17,17,24,,,,,2,0,2,0,down,1.02550923334,MO,f,26,59.9989579048,Set,2017_12_14_1943,
"[3.0, 3.0]",1,0,17,17,24,,,,,3,0,3,0,left,0.442144649831,MO,f,26,59.9989579048,Set,2017_12_14_1943,
"[3.0, 3.0]",1,0,17,17,24,,,,,4,0,4,0,left,0.708773237304,MO,f,26,59.9989579048,Set,2017_12_14_1943,
"[3.0, 3.0]",1,0,17,17,24,,,,,5,0,5,0,left,0.458808171737,MO,f,26,59.9989579048,Set,2017_12_14_1943,
"[3.0, 3.0]",1,0,17,17,24,,,,,6,0,6,0,right,0.533588361199,MO,f,26,59.9989579048,Set,2017_12_14_1943,
"[3.0, 3.0]",1,0,17,17,24,,,,,7,0,7,0,left,0.658827277119,MO,f,26,59.9989579048,Set,2017_12_14_1943,
"[3.0, 3.0]",1,0,17,17,24,,,,,8,0,8,0,down,0.458840935084,MO,f,26,59.9989579048,Set,2017_12_14_1943,
"[3.0, 3.0]",1,0,17,17,24,,,,,9,0,9,0,left,0.450233646159,MO,f,26,59.9989579048,Set,2017_12_14_1943,
"[3.0, 3.0]",1,0,17,17,24,,,,,10,0,10,0,left,0.692122741792,MO,f,26,59.9989579048,Set,2017_12_14_1943,
"[3.0, 3.0]",1,0,17,17,24,,,,,11,0,11,0,down,0.442135965553,MO,f,26,59.9989579048,Set,2017_12_14_1943,
"[3.0, 3.0]",1,0,17,17,24,,,,,12,0,12,0,down,0.616873602135,MO,f,26,59.9989579048,Set,2017_12_14_1943,
"[2.8, 2.8]",5,0,18,18,16,,,,,0,0,0,0,left,0.792125583917,MO,f,26,59.9989579048,Set,2017_12_14_1943,
"[2.8, 2.8]",5,0,18,18,16,,,,,1,0,1,0,down,0.908786816348,MO,f,26,59.9989579048,Set,2017_12_14_1943,
"[2.8, 2.8]",5,0,18,18,16,,,,,2,0,2,0,left,0.666944694662,MO,f,26,59.9989579048,Set,2017_12_14_1943,
"[2.8, 2.8]",5,0,18,18,16,,,,,3,0,3,0,down,0.475504457005,MO,f,26,59.9989579048,Set,2017_12_14_1943,
"[2.8, 2.8]",5,0,18,18,16,,,,,4,0,4,0,right,0.608854474645,MO,f,26,59.9989579048,Set,2017_12_14_1943,
"[2.8, 2.8]",5,0,18,18,16,,,,,5,0,5,0,down,0.692187479028,MO,f,26,59.9989579048,Set,2017_12_14_1943,
"[2.8, 2.8]",5,0,18,18,16,,,,,6,0,6,0,down,0.425440075021,MO,f,26,59.9989579048,Set,2017_12_14_1943,
"[3.0, 3.0]",4,0,19,19,27,,,,,0,0,0,0,left,0.842111018035,MO,f,26,59.9989579048,Set,2017_12_14_1943,
"[3.0, 3.0]",4,0,19,19,27,,,,,1,0,1,0,down,0.625479312119,MO,f,26,59.9989579048,Set,2017_12_14_1943,
"[3.0, 3.0]",4,0,19,19,27,,,,,2,0,2,0,down,0.492154163032,MO,f,26,59.9989579048,Set,2017_12_14_1943,
"[2.8, 2.8]",3,0,20,20,14,,,,,0,0,0,0,left,0.692341032583,MO,f,26,59.9989579048,Set,2017_12_14_1943,
"[2.8, 2.8]",3,0,20,20,14,,,,,1,0,1,0,left,0.592268716369,MO,f,26,59.9989579048,Set,2017_12_14_1943,
"[2.8, 2.8]",3,0,20,20,14,,,,,2,0,2,0,left,0.709015607208,MO,f,26,59.9989579048,Set,2017_12_14_1943,
"[2.8, 2.8]",3,0,20,20,14,,,,,3,0,3,0,left,0.617086366576,MO,f,26,59.9989579048,Set,2017_12_14_1943,
"[2.8, 2.8]",3,0,20,20,14,,,,,4,0,4,0,down,0.867073142814,MO,f,26,59.9989579048,Set,2017_12_14_1943,
"[2.8, 2.8]",3,0,20,20,14,,,,,5,0,5,0,down,0.367104327204,MO,f,26,59.9989579048,Set,2017_12_14_1943,
"[2.7, 2.7]",6,0,21,21,11,,,,,0,0,0,0,left,0.842283913822,MO,f,26,59.9989579048,Set,2017_12_14_1943,
"[2.7, 2.7]",6,0,21,21,11,,,,,1,0,1,0,down,0.958788434771,MO,f,26,59.9989579048,Set,2017_12_14_1943,
"[2.7, 2.7]",6,0,21,21,11,,,,,2,0,2,0,right,0.658994251819,MO,f,26,59.9989579048,Set,2017_12_14_1943,
"[2.7, 2.7]",6,0,21,21,11,,,,,3,0,3,0,down,0.817017050373,MO,f,26,59.9989579048,Set,2017_12_14_1943,
"[2.7, 2.7]",6,0,21,21,11,,,,,4,0,4,0,down,0.74206435986,MO,f,26,59.9989579048,Set,2017_12_14_1943,
"[2.7, 2.7]",6,0,21,21,11,,,,,5,0,5,0,right,0.708768895187,MO,f,26,59.9989579048,Set,2017_12_14_1943,
"[2.7, 2.7]",6,0,21,21,11,,,,,6,0,6,0,left,0.558841803519,MO,f,26,59.9989579048,Set,2017_12_14_1943,
"[2.7, 2.7]",6,0,21,21,11,,,,,7,0,7,0,right,0.408830237662,MO,f,26,59.9989579048,Set,2017_12_14_1943,
"[2.7, 2.7]",6,0,21,21,11,,,,,8,0,8,0,down,0.642121912839,MO,f,26,59.9989579048,Set,2017_12_14_1943,
"[2.7, 2.7]",6,0,21,21,11,,,,,9,0,9,0,down,0.808790684794,MO,f,26,59.9989579048,Set,2017_12_14_1943,
"[2.6, 2.6]",3,0,22,22,2,,,,,0,0,0,0,down,1.08366655903,MO,f,26,59.9989579048,Set,2017_12_14_1943,
"[2.6, 2.6]",3,0,22,22,2,,,,,1,0,1,0,down,0.583658269519,MO,f,26,59.9989579048,Set,2017_12_14_1943,
"[2.6, 2.6]",4,0,23,23,3,,,,,0,0,0,0,down,1.34195035917,MO,f,26,59.9989579048,Set,2017_12_14_1943,
"[2.6, 2.6]",4,0,23,23,3,,,,,1,0,1,0,down,0.583552084659,MO,f,26,59.9989579048,Set,2017_12_14_1943,
"[2.9, 2.9]",2,0,24,24,19,,,,,0,0,0,0,down,0.733609440271,MO,f,26,59.9989579048,Set,2017_12_14_1943,
"[2.9, 2.9]",2,0,24,24,19,,,,,1,0,1,0,down,0.566825799207,MO,f,26,59.9989579048,Set,2017_12_14_1943,
"[2.9, 2.9]",1,0,25,25,18,,,,,0,0,0,0,down,0.80880647435,MO,f,26,59.9989579048,Set,2017_12_14_1943,
"[2.9, 2.9]",1,0,25,25,18,,,,,1,0,1,0,down,0.908966422692,MO,f,26,59.9989579048,Set,2017_12_14_1943,
"[2.9, 2.9]",1,0,25,25,18,,,,,2,0,2,0,right,0.950252988376,MO,f,26,59.9989579048,Set,2017_12_14_1943,
"[2.9, 2.9]",1,0,25,25,18,,,,,3,0,3,0,down,0.708803237489,MO,f,26,59.9989579048,Set,2017_12_14_1943,
"[2.9, 2.9]",1,0,25,25,18,,,,,4,0,4,0,down,0.416843838786,MO,f,26,59.9989579048,Set,2017_12_14_1943,
"[2.8, 2.8]",6,0,26,26,17,,,,,0,0,0,0,down,0.942132807642,MO,f,26,59.9989579048,Set,2017_12_14_1943,
"[2.8, 2.8]",6,0,26,26,17,,,,,1,0,1,0,down,0.608812237551,MO,f,26,59.9989579048,Set,2017_12_14_1943,
"[2.6, 2.6]",1,0,27,27,0,,,,,0,0,0,0,down,1.27543798291,MO,f,26,59.9989579048,Set,2017_12_14_1943,
"[2.6, 2.6]",1,0,27,27,0,,,,,1,0,1,0,down,0.658778329453,MO,f,26,59.9989579048,Set,2017_12_14_1943,
"[2.6, 2.6]",6,0,28,28,5,,,,,0,0,0,0,down,0.942186886925,MO,f,26,59.9989579048,Set,2017_12_14_1943,
"[2.6, 2.6]",6,0,28,28,5,,,,,1,0,1,0,down,0.60879210585,MO,f,26,59.9989579048,Set,2017_12_14_1943,
"[2.6, 2.6]",6,0,28,28,5,,,,,2,0,2,0,right,1.09211279436,MO,f,26,59.9989579048,Set,2017_12_14_1943,
"[2.6, 2.6]",6,0,28,28,5,,,,,3,0,3,0,down,0.392126847088,MO,f,26,59.9989579048,Set,2017_12_14_1943,
"[2.6, 2.6]",6,0,28,28,5,,,,,4,0,4,0,down,0.492153768297,MO,f,26,59.9989579048,Set,2017_12_14_1943,
"[2.9, 2.9]",4,0,29,29,21,,,,,0,0,0,0,down,0.758739329205,MO,f,26,59.9989579048,Set,2017_12_14_1943,
"[2.9, 2.9]",4,0,29,29,21,,,,,1,0,1,0,down,0.408797474302,MO,f,26,59.9989579048,Set,2017_12_14_1943,
