size,n,trials_2.thisRepN,trials_2.thisTrialN,trials_2.thisN,trials_2.thisIndex,trials.thisRepN,trials.thisTrialN,trials.thisN,trials.thisIndex,trials_3.thisRepN,trials_3.thisTrialN,trials_3.thisN,trials_3.thisIndex,answer.keys,answer.rt,participant,gender,age,frameRate,expName,date,
"[2.8, 2.8]",2,0,0,0,13,,,,,0,0,0,0,down,1.20878389524,SND, m,22,60.0111811253,Set,2017_12_20_2139,
"[2.8, 2.8]",2,0,0,0,13,,,,,1,0,1,0,down,1.05877232947,SND, m,22,60.0111811253,Set,2017_12_20_2139,
"[2.6, 2.6]",4,0,1,1,3,,,,,0,0,0,0,down,2.15878069785,SND, m,22,60.0111811253,Set,2017_12_20_2139,
"[2.6, 2.6]",4,0,1,1,3,,,,,1,0,1,0,down,4.97541050916,SND, m,22,60.0111811253,Set,2017_12_20_2139,
"[2.8, 2.8]",6,0,2,2,17,,,,,0,0,0,0,down,0.79214176815,SND, m,22,60.0111811253,Set,2017_12_20_2139,
"[2.8, 2.8]",6,0,2,2,17,,,,,1,0,1,0,down,0.592131741811,SND, m,22,60.0111811253,Set,2017_12_20_2139,
"[2.6, 2.6]",6,0,3,3,5,,,,,0,0,0,0,right,1.22544860141,SND, m,22,60.0111811253,Set,2017_12_20_2139,
"[2.6, 2.6]",6,0,3,3,5,,,,,1,0,1,0,right,1.39211461018,SND, m,22,60.0111811253,Set,2017_12_20_2139,
"[2.6, 2.6]",6,0,3,3,5,,,,,2,0,2,0,down,0.625476548914,SND, m,22,60.0111811253,Set,2017_12_20_2139,
"[2.6, 2.6]",6,0,3,3,5,,,,,3,0,3,0,down,0.608809079626,SND, m,22,60.0111811253,Set,2017_12_20_2139,
"[2.8, 2.8]",3,0,4,4,14,,,,,0,0,0,0,down,1.60024165933,SND, m,22,60.0111811253,Set,2017_12_20_2139,
"[2.8, 2.8]",3,0,4,4,14,,,,,1,0,1,0,down,0.592130557634,SND, m,22,60.0111811253,Set,2017_12_20_2139,
"[2.7, 2.7]",1,0,5,5,6,,,,,0,0,0,0,right,1.29194163543,SND, m,22,60.0111811253,Set,2017_12_20_2139,
"[2.7, 2.7]",1,0,5,5,6,,,,,1,0,1,0,right,2.09210450482,SND, m,22,60.0111811253,Set,2017_12_20_2139,
"[2.7, 2.7]",1,0,5,5,6,,,,,2,0,2,0,down,0.458796329563,SND, m,22,60.0111811253,Set,2017_12_20_2139,
"[2.7, 2.7]",1,0,5,5,6,,,,,3,0,3,0,down,0.408788395347,SND, m,22,60.0111811253,Set,2017_12_20_2139,
"[2.8, 2.8]",5,0,6,6,16,,,,,0,0,0,0,down,0.58357142692,SND, m,22,60.0111811253,Set,2017_12_20_2139,
"[2.8, 2.8]",5,0,6,6,16,,,,,1,0,1,0,down,0.342120491783,SND, m,22,60.0111811253,Set,2017_12_20_2139,
"[2.9, 2.9]",4,0,7,7,21,,,,,0,0,0,0,down,0.575470588403,SND, m,22,60.0111811253,Set,2017_12_20_2139,
"[2.9, 2.9]",4,0,7,7,21,,,,,1,0,1,0,down,0.425455469871,SND, m,22,60.0111811253,Set,2017_12_20_2139,
"[3.0, 3.0]",3,0,8,8,26,,,,,0,0,0,0,left,0.675454877783,SND, m,22,60.0111811253,Set,2017_12_20_2139,
"[3.0, 3.0]",3,0,8,8,26,,,,,1,0,1,0,left,0.608843422029,SND, m,22,60.0111811253,Set,2017_12_20_2139,
"[3.0, 3.0]",3,0,8,8,26,,,,,2,0,2,0,down,0.492106004851,SND, m,22,60.0111811253,Set,2017_12_20_2139,
"[3.0, 3.0]",3,0,8,8,26,,,,,3,0,3,0,down,0.475446825032,SND, m,22,60.0111811253,Set,2017_12_20_2139,
"[3.0, 3.0]",5,0,9,9,28,,,,,0,0,0,0,left,0.658799645375,SND, m,22,60.0111811253,Set,2017_12_20_2139,
"[3.0, 3.0]",5,0,9,9,28,,,,,1,0,1,0,left,1.27545456192,SND, m,22,60.0111811253,Set,2017_12_20_2139,
"[3.0, 3.0]",5,0,9,9,28,,,,,2,0,2,0,down,0.642129412852,SND, m,22,60.0111811253,Set,2017_12_20_2139,
"[3.0, 3.0]",5,0,9,9,28,,,,,3,0,3,0,down,0.425452311873,SND, m,22,60.0111811253,Set,2017_12_20_2139,
"[2.9, 2.9]",5,0,10,10,22,,,,,0,0,0,0,down,0.39213237341,SND, m,22,60.0111811253,Set,2017_12_20_2139,
"[2.9, 2.9]",5,0,10,10,22,,,,,1,0,1,0,down,0.992098110029,SND, m,22,60.0111811253,Set,2017_12_20_2139,
"[2.9, 2.9]",2,0,11,11,19,,,,,0,0,0,0,left,0.658828856074,SND, m,22,60.0111811253,Set,2017_12_20_2139,
"[2.9, 2.9]",2,0,11,11,19,,,,,1,0,1,0,down,0.975461035734,SND, m,22,60.0111811253,Set,2017_12_20_2139,
"[2.9, 2.9]",2,0,11,11,19,,,,,2,0,2,0,down,0.592137662927,SND, m,22,60.0111811253,Set,2017_12_20_2139,
"[2.6, 2.6]",2,0,12,12,1,,,,,0,0,0,0,down,0.558800355881,SND, m,22,60.0111811253,Set,2017_12_20_2139,
"[2.6, 2.6]",2,0,12,12,1,,,,,1,0,1,0,down,0.358776118956,SND, m,22,60.0111811253,Set,2017_12_20_2139,
"[3.0, 3.0]",1,0,13,13,24,,,,,0,0,0,0,left,0.442140307627,SND, m,22,60.0111811253,Set,2017_12_20_2139,
"[3.0, 3.0]",1,0,13,13,24,,,,,1,0,1,0,left,0.325461312081,SND, m,22,60.0111811253,Set,2017_12_20_2139,
"[3.0, 3.0]",1,0,13,13,24,,,,,2,0,2,0,down,0.775455746101,SND, m,22,60.0111811253,Set,2017_12_20_2139,
"[3.0, 3.0]",1,0,13,13,24,,,,,3,0,3,0,down,0.425479154219,SND, m,22,60.0111811253,Set,2017_12_20_2139,
"[2.7, 2.7]",2,0,14,14,7,,,,,0,0,0,0,left,0.716902497108,SND, m,22,60.0111811253,Set,2017_12_20_2139,
"[2.7, 2.7]",2,0,14,14,7,,,,,1,0,1,0,left,0.558786934707,SND, m,22,60.0111811253,Set,2017_12_20_2139,
"[2.7, 2.7]",2,0,14,14,7,,,,,2,0,2,0,left,0.608783816337,SND, m,22,60.0111811253,Set,2017_12_20_2139,
"[2.7, 2.7]",2,0,14,14,7,,,,,3,0,3,0,down,0.625474180444,SND, m,22,60.0111811253,Set,2017_12_20_2139,
"[2.7, 2.7]",2,0,14,14,7,,,,,4,0,4,0,down,0.692124320776,SND, m,22,60.0111811253,Set,2017_12_20_2139,
"[2.7, 2.7]",3,0,15,15,8,,,,,0,0,0,0,down,1.07549585169,SND, m,22,60.0111811253,Set,2017_12_20_2139,
"[2.7, 2.7]",3,0,15,15,8,,,,,1,0,1,0,down,0.358778487309,SND, m,22,60.0111811253,Set,2017_12_20_2139,
"[2.6, 2.6]",1,0,16,16,0,,,,,0,0,0,0,down,0.81693770783,SND, m,22,60.0111811253,Set,2017_12_20_2139,
"[2.6, 2.6]",1,0,16,16,0,,,,,1,0,1,0,down,0.392180136871,SND, m,22,60.0111811253,Set,2017_12_20_2139,
"[2.6, 2.6]",1,0,16,16,0,,,,,2,0,2,0,left,0.492123373435,SND, m,22,60.0111811253,Set,2017_12_20_2139,
"[2.6, 2.6]",1,0,16,16,0,,,,,3,0,3,0,down,0.35881559283,SND, m,22,60.0111811253,Set,2017_12_20_2139,
"[2.6, 2.6]",1,0,16,16,0,,,,,4,0,4,0,down,0.375454246067,SND, m,22,60.0111811253,Set,2017_12_20_2139,
"[2.6, 2.6]",3,0,17,17,2,,,,,0,0,0,0,down,0.616903207614,SND, m,22,60.0111811253,Set,2017_12_20_2139,
"[2.6, 2.6]",3,0,17,17,2,,,,,1,0,1,0,down,0.575460325112,SND, m,22,60.0111811253,Set,2017_12_20_2139,
"[2.9, 2.9]",3,0,18,18,20,,,,,0,0,0,0,left,0.992145084077,SND, m,22,60.0111811253,Set,2017_12_20_2139,
"[2.9, 2.9]",3,0,18,18,20,,,,,1,0,1,0,down,0.62543470657,SND, m,22,60.0111811253,Set,2017_12_20_2139,
"[2.9, 2.9]",3,0,18,18,20,,,,,2,0,2,0,down,0.375464904122,SND, m,22,60.0111811253,Set,2017_12_20_2139,
"[2.8, 2.8]",1,0,19,19,12,,,,,0,0,0,0,down,0.625467469916,SND, m,22,60.0111811253,Set,2017_12_20_2139,
"[2.8, 2.8]",1,0,19,19,12,,,,,1,0,1,0,down,0.425470075221,SND, m,22,60.0111811253,Set,2017_12_20_2139,
"[2.7, 2.7]",6,0,20,20,11,,,,,0,0,0,0,left,1.65024051466,SND, m,22,60.0111811253,Set,2017_12_20_2139,
"[2.7, 2.7]",6,0,20,20,11,,,,,1,0,1,0,down,1.87543253542,SND, m,22,60.0111811253,Set,2017_12_20_2139,
"[2.7, 2.7]",6,0,20,20,11,,,,,2,0,2,0,down,0.375469246181,SND, m,22,60.0111811253,Set,2017_12_20_2139,
"[2.7, 2.7]",4,0,21,21,9,,,,,0,0,0,0,left,0.42548704904,SND, m,22,60.0111811253,Set,2017_12_20_2139,
"[2.7, 2.7]",4,0,21,21,9,,,,,1,0,1,0,down,0.525451601367,SND, m,22,60.0111811253,Set,2017_12_20_2139,
"[2.7, 2.7]",4,0,21,21,9,,,,,2,0,2,0,down,0.208791000652,SND, m,22,60.0111811253,Set,2017_12_20_2139,
"[3.0, 3.0]",2,0,22,22,25,,,,,0,0,0,0,left,0.55030990974,SND, m,22,60.0111811253,Set,2017_12_20_2139,
"[3.0, 3.0]",2,0,22,22,25,,,,,1,0,1,0,left,0.342141018249,SND, m,22,60.0111811253,Set,2017_12_20_2139,
"[3.0, 3.0]",2,0,22,22,25,,,,,2,0,2,0,down,0.658818987547,SND, m,22,60.0111811253,Set,2017_12_20_2139,
"[3.0, 3.0]",2,0,22,22,25,,,,,3,0,3,0,down,0.292100715335,SND, m,22,60.0111811253,Set,2017_12_20_2139,
"[2.7, 2.7]",5,0,23,23,10,,,,,0,0,0,0,left,0.575493088458,SND, m,22,60.0111811253,Set,2017_12_20_2139,
"[2.7, 2.7]",5,0,23,23,10,,,,,1,0,1,0,down,0.908763131942,SND, m,22,60.0111811253,Set,2017_12_20_2139,
"[2.7, 2.7]",5,0,23,23,10,,,,,2,0,2,0,down,0.35863243381,SND, m,22,60.0111811253,Set,2017_12_20_2139,
"[3.0, 3.0]",4,0,24,24,27,,,,,0,0,0,0,left,0.716913155047,SND, m,22,60.0111811253,Set,2017_12_20_2139,
"[3.0, 3.0]",4,0,24,24,27,,,,,1,0,1,0,left,0.575506904395,SND, m,22,60.0111811253,Set,2017_12_20_2139,
"[3.0, 3.0]",4,0,24,24,27,,,,,2,0,2,0,down,0.592109241639,SND, m,22,60.0111811253,Set,2017_12_20_2139,
"[3.0, 3.0]",4,0,24,24,27,,,,,3,0,3,0,down,0.325447890908,SND, m,22,60.0111811253,Set,2017_12_20_2139,
"[3.0, 3.0]",4,0,24,24,27,,,,,4,0,4,0,left,1.27546364104,SND, m,22,60.0111811253,Set,2017_12_20_2139,
"[3.0, 3.0]",4,0,24,24,27,,,,,5,0,5,0,down,0.542167623644,SND, m,22,60.0111811253,Set,2017_12_20_2139,
"[3.0, 3.0]",4,0,24,24,27,,,,,6,0,6,0,down,0.425466917339,SND, m,22,60.0111811253,Set,2017_12_20_2139,
"[2.8, 2.8]",4,0,25,25,15,,,,,0,0,0,0,left,0.592110031168,SND, m,22,60.0111811253,Set,2017_12_20_2139,
"[2.8, 2.8]",4,0,25,25,15,,,,,1,0,1,0,down,0.708790605888,SND, m,22,60.0111811253,Set,2017_12_20_2139,
"[2.8, 2.8]",4,0,25,25,15,,,,,2,0,2,0,down,0.358806513832,SND, m,22,60.0111811253,Set,2017_12_20_2139,
"[2.9, 2.9]",6,0,26,26,23,,,,,0,0,0,0,down,1.81689507596,SND, m,22,60.0111811253,Set,2017_12_20_2139,
"[2.9, 2.9]",6,0,26,26,23,,,,,1,0,1,0,down,0.608799211099,SND, m,22,60.0111811253,Set,2017_12_20_2139,
"[2.6, 2.6]",5,0,27,27,4,,,,,0,0,0,0,down,0.525455943542,SND, m,22,60.0111811253,Set,2017_12_20_2139,
"[2.6, 2.6]",5,0,27,27,4,,,,,1,0,1,0,down,0.258778803051,SND, m,22,60.0111811253,Set,2017_12_20_2139,
"[3.0, 3.0]",6,0,28,28,29,,,,,0,0,0,0,down,1.20029226493,SND, m,22,60.0111811253,Set,2017_12_20_2139,
"[3.0, 3.0]",6,0,28,28,29,,,,,1,0,1,0,down,0.325459338259,SND, m,22,60.0111811253,Set,2017_12_20_2139,
"[2.9, 2.9]",1,0,29,29,18,,,,,0,0,0,0,left,0.542153413058,SND, m,22,60.0111811253,Set,2017_12_20_2139,
"[2.9, 2.9]",1,0,29,29,18,,,,,1,0,1,0,down,0.775432456634,SND, m,22,60.0111811253,Set,2017_12_20_2139,
"[2.9, 2.9]",1,0,29,29,18,,,,,2,0,2,0,down,0.342141413013,SND, m,22,60.0111811253,Set,2017_12_20_2139,
