size,n,trials_2.thisRepN,trials_2.thisTrialN,trials_2.thisN,trials_2.thisIndex,trials.thisRepN,trials.thisTrialN,trials.thisN,trials.thisIndex,trials_3.thisRepN,trials_3.thisTrialN,trials_3.thisN,trials_3.thisIndex,answer.keys,answer.rt,participant,gender,age,frameRate,expName,date,
"[2.7, 2.7]",2,0,0,0,7,,,,,0,0,0,0,down,3.25875827667,VR,m,19,59.986739694,Set,2017_12_15_1743,
"[2.7, 2.7]",2,0,0,0,7,,,,,1,0,1,0,down,1.84211259699,VR,m,19,59.986739694,Set,2017_12_15_1743,
"[2.6, 2.6]",1,0,1,1,0,,,,,0,0,0,0,down,1.11690044441,VR,m,19,59.986739694,Set,2017_12_15_1743,
"[2.6, 2.6]",1,0,1,1,0,,,,,1,0,1,0,down,0.950147198251,VR,m,19,59.986739694,Set,2017_12_15_1743,
"[3.0, 3.0]",1,0,2,2,24,,,,,0,0,0,0,down,4.72541504857,VR,m,19,59.986739694,Set,2017_12_15_1743,
"[3.0, 3.0]",1,0,2,2,24,,,,,1,0,1,0,down,0.77544429875,VR,m,19,59.986739694,Set,2017_12_15_1743,
"[2.7, 2.7]",3,0,3,3,8,,,,,0,0,0,0,down,0.75877051361,VR,m,19,59.986739694,Set,2017_12_15_1743,
"[2.7, 2.7]",3,0,3,3,8,,,,,1,0,1,0,down,0.725459654117,VR,m,19,59.986739694,Set,2017_12_15_1743,
"[2.7, 2.7]",3,0,3,3,8,,,,,2,0,2,0,right,1.15879254008,VR,m,19,59.986739694,Set,2017_12_15_1743,
"[2.7, 2.7]",3,0,3,3,8,,,,,3,0,3,0,down,0.70879455324,VR,m,19,59.986739694,Set,2017_12_15_1743,
"[2.7, 2.7]",3,0,3,3,8,,,,,4,0,4,0,down,0.692144452449,VR,m,19,59.986739694,Set,2017_12_15_1743,
"[2.6, 2.6]",3,0,4,4,2,,,,,0,0,0,0,down,1.05024161987,VR,m,19,59.986739694,Set,2017_12_15_1743,
"[2.6, 2.6]",3,0,4,4,2,,,,,1,0,1,0,right,1.12548602268,VR,m,19,59.986739694,Set,2017_12_15_1743,
"[2.6, 2.6]",3,0,4,4,2,,,,,2,0,2,0,right,0.542067754606,VR,m,19,59.986739694,Set,2017_12_15_1743,
"[2.6, 2.6]",3,0,4,4,2,,,,,3,0,3,0,right,0.692111689073,VR,m,19,59.986739694,Set,2017_12_15_1743,
"[2.6, 2.6]",3,0,4,4,2,,,,,4,0,4,0,down,1.09211318911,VR,m,19,59.986739694,Set,2017_12_15_1743,
"[2.6, 2.6]",3,0,4,4,2,,,,,5,0,5,0,down,2.20879968486,VR,m,19,59.986739694,Set,2017_12_15_1743,
"[2.8, 2.8]",5,0,5,5,16,,,,,0,0,0,0,right,0.642108886444,VR,m,19,59.986739694,Set,2017_12_15_1743,
"[2.8, 2.8]",5,0,5,5,16,,,,,1,0,1,0,right,2.00882952713,VR,m,19,59.986739694,Set,2017_12_15_1743,
"[2.8, 2.8]",5,0,5,5,16,,,,,2,0,2,0,down,1.47546616729,VR,m,19,59.986739694,Set,2017_12_15_1743,
"[2.8, 2.8]",5,0,5,5,16,,,,,3,0,3,0,down,0.64211086015,VR,m,19,59.986739694,Set,2017_12_15_1743,
"[2.8, 2.8]",5,0,5,5,16,,,,,4,0,4,0,left,1.5088311061,VR,m,19,59.986739694,Set,2017_12_15_1743,
"[2.8, 2.8]",5,0,5,5,16,,,,,5,0,5,0,right,0.725435575005,VR,m,19,59.986739694,Set,2017_12_15_1743,
"[2.8, 2.8]",5,0,5,5,16,,,,,6,0,6,0,down,0.908744184504,VR,m,19,59.986739694,Set,2017_12_15_1743,
"[2.8, 2.8]",5,0,5,5,16,,,,,7,0,7,0,down,1.15877438206,VR,m,19,59.986739694,Set,2017_12_15_1743,
"[2.8, 2.8]",5,0,5,5,16,,,,,8,0,8,0,right,0.7087913953,VR,m,19,59.986739694,Set,2017_12_15_1743,
"[2.8, 2.8]",5,0,5,5,16,,,,,9,0,9,0,down,0.708789026859,VR,m,19,59.986739694,Set,2017_12_15_1743,
"[2.8, 2.8]",5,0,5,5,16,,,,,10,0,10,0,down,0.975495772756,VR,m,19,59.986739694,Set,2017_12_15_1743,
"[2.8, 2.8]",6,0,6,6,17,,,,,0,0,0,0,left,0.908785632113,VR,m,19,59.986739694,Set,2017_12_15_1743,
"[2.8, 2.8]",6,0,6,6,17,,,,,1,0,1,0,right,0.492100478499,VR,m,19,59.986739694,Set,2017_12_15_1743,
"[2.8, 2.8]",6,0,6,6,17,,,,,2,0,2,0,down,0.742127912876,VR,m,19,59.986739694,Set,2017_12_15_1743,
"[2.8, 2.8]",6,0,6,6,17,,,,,3,0,3,0,left,0.592123847076,VR,m,19,59.986739694,Set,2017_12_15_1743,
"[2.8, 2.8]",6,0,6,6,17,,,,,4,0,4,0,down,1.04214157086,VR,m,19,59.986739694,Set,2017_12_15_1743,
"[2.8, 2.8]",6,0,6,6,17,,,,,5,0,5,0,left,0.625495101674,VR,m,19,59.986739694,Set,2017_12_15_1743,
"[2.8, 2.8]",6,0,6,6,17,,,,,6,0,6,0,left,0.84214180769,VR,m,19,59.986739694,Set,2017_12_15_1743,
"[2.8, 2.8]",6,0,6,6,17,,,,,7,0,7,0,down,0.775424561783,VR,m,19,59.986739694,Set,2017_12_15_1743,
"[2.8, 2.8]",6,0,6,6,17,,,,,8,0,8,0,left,0.458811724384,VR,m,19,59.986739694,Set,2017_12_15_1743,
"[2.8, 2.8]",6,0,6,6,17,,,,,9,0,9,0,left,0.775508246501,VR,m,19,59.986739694,Set,2017_12_15_1743,
"[2.8, 2.8]",6,0,6,6,17,,,,,10,0,10,0,down,0.542121044418,VR,m,19,59.986739694,Set,2017_12_15_1743,
"[2.8, 2.8]",6,0,6,6,17,,,,,11,0,11,0,down,0.992100478499,VR,m,19,59.986739694,Set,2017_12_15_1743,
"[2.7, 2.7]",5,0,7,7,10,,,,,0,0,0,0,left,0.675453298783,VR,m,19,59.986739694,Set,2017_12_15_1743,
"[2.7, 2.7]",5,0,7,7,10,,,,,1,0,1,0,down,1.7921093996,VR,m,19,59.986739694,Set,2017_12_15_1743,
"[2.7, 2.7]",5,0,7,7,10,,,,,2,0,2,0,left,0.708797316387,VR,m,19,59.986739694,Set,2017_12_15_1743,
"[2.7, 2.7]",5,0,7,7,10,,,,,3,0,3,0,down,0.991959161853,VR,m,19,59.986739694,Set,2017_12_15_1743,
"[2.7, 2.7]",5,0,7,7,10,,,,,4,0,4,0,down,0.44211070225,VR,m,19,59.986739694,Set,2017_12_15_1743,
"[2.6, 2.6]",6,0,8,8,5,,,,,0,0,0,0,left,0.675538957206,VR,m,19,59.986739694,Set,2017_12_15_1743,
"[2.6, 2.6]",6,0,8,8,5,,,,,1,0,1,0,down,0.558805092762,VR,m,19,59.986739694,Set,2017_12_15_1743,
"[2.6, 2.6]",6,0,8,8,5,,,,,2,0,2,0,down,0.392139478732,VR,m,19,59.986739694,Set,2017_12_15_1743,
"[2.8, 2.8]",3,0,9,9,14,,,,,0,0,0,0,down,0.525455154071,VR,m,19,59.986739694,Set,2017_12_15_1743,
"[2.8, 2.8]",3,0,9,9,14,,,,,1,0,1,0,down,0.525459890923,VR,m,19,59.986739694,Set,2017_12_15_1743,
"[2.6, 2.6]",4,0,10,10,3,,,,,0,0,0,0,left,1.29210347851,VR,m,19,59.986739694,Set,2017_12_15_1743,
"[2.6, 2.6]",4,0,10,10,3,,,,,1,0,1,0,down,0.575459140935,VR,m,19,59.986739694,Set,2017_12_15_1743,
"[2.6, 2.6]",4,0,10,10,3,,,,,2,0,2,0,down,0.492109952262,VR,m,19,59.986739694,Set,2017_12_15_1743,
"[2.6, 2.6]",4,0,10,10,3,,,,,3,0,3,0,right,0.75878669793,VR,m,19,59.986739694,Set,2017_12_15_1743,
"[2.6, 2.6]",4,0,10,10,3,,,,,4,0,4,0,down,1.22529031098,VR,m,19,59.986739694,Set,2017_12_15_1743,
"[2.6, 2.6]",4,0,10,10,3,,,,,5,0,5,0,right,3.05877509259,VR,m,19,59.986739694,Set,2017_12_15_1743,
"[2.6, 2.6]",4,0,10,10,3,,,,,6,0,6,0,down,0.592160557804,VR,m,19,59.986739694,Set,2017_12_15_1743,
"[2.6, 2.6]",4,0,10,10,3,,,,,7,0,7,0,down,0.258789461106,VR,m,19,59.986739694,Set,2017_12_15_1743,
"[2.6, 2.6]",5,0,11,11,4,,,,,0,0,0,0,down,0.566919352394,VR,m,19,59.986739694,Set,2017_12_15_1743,
"[2.6, 2.6]",5,0,11,11,4,,,,,1,0,1,0,down,0.79193492487,VR,m,19,59.986739694,Set,2017_12_15_1743,
"[2.9, 2.9]",3,0,12,12,20,,,,,0,0,0,0,down,0.616925312963,VR,m,19,59.986739694,Set,2017_12_15_1743,
"[2.9, 2.9]",3,0,12,12,20,,,,,1,0,1,0,down,1.14213612347,VR,m,19,59.986739694,Set,2017_12_15_1743,
"[2.9, 2.9]",2,0,13,13,19,,,,,0,0,0,0,down,1.00023289616,VR,m,19,59.986739694,Set,2017_12_15_1743,
"[2.9, 2.9]",2,0,13,13,19,,,,,1,0,1,0,down,0.458791592682,VR,m,19,59.986739694,Set,2017_12_15_1743,
"[2.7, 2.7]",1,0,14,14,6,,,,,0,0,0,0,down,0.700224764529,VR,m,19,59.986739694,Set,2017_12_15_1743,
"[2.7, 2.7]",1,0,14,14,6,,,,,1,0,1,0,down,2.42541125906,VR,m,19,59.986739694,Set,2017_12_15_1743,
"[2.8, 2.8]",2,0,15,15,13,,,,,0,0,0,0,left,1.07545558826,VR,m,19,59.986739694,Set,2017_12_15_1743,
"[2.8, 2.8]",2,0,15,15,13,,,,,1,0,1,0,left,1.50877544784,VR,m,19,59.986739694,Set,2017_12_15_1743,
"[2.8, 2.8]",2,0,15,15,13,,,,,2,0,2,0,down,0.475485114788,VR,m,19,59.986739694,Set,2017_12_15_1743,
"[2.8, 2.8]",2,0,15,15,13,,,,,3,0,3,0,down,0.392082636274,VR,m,19,59.986739694,Set,2017_12_15_1743,
"[3.0, 3.0]",4,0,16,16,27,,,,,0,0,0,0,left,1.7502098039,VR,m,19,59.986739694,Set,2017_12_15_1743,
"[3.0, 3.0]",4,0,16,16,27,,,,,1,0,1,0,down,0.47547129888,VR,m,19,59.986739694,Set,2017_12_15_1743,
"[3.0, 3.0]",4,0,16,16,27,,,,,2,0,2,0,down,0.458797119034,VR,m,19,59.986739694,Set,2017_12_15_1743,
"[2.7, 2.7]",6,0,17,17,11,,,,,0,0,0,0,left,1.46692045766,VR,m,19,59.986739694,Set,2017_12_15_1743,
"[2.7, 2.7]",6,0,17,17,11,,,,,1,0,1,0,left,1.27542298281,VR,m,19,59.986739694,Set,2017_12_15_1743,
"[2.7, 2.7]",6,0,17,17,11,,,,,2,0,2,0,left,0.77552206238,VR,m,19,59.986739694,Set,2017_12_15_1743,
"[2.7, 2.7]",6,0,17,17,11,,,,,3,0,3,0,down,0.53348533425,VR,m,19,59.986739694,Set,2017_12_15_1743,
"[2.7, 2.7]",6,0,17,17,11,,,,,4,0,4,0,down,0.392139478732,VR,m,19,59.986739694,Set,2017_12_15_1743,
"[2.6, 2.6]",2,0,18,18,1,,,,,0,0,0,0,down,1.3088120007,VR,m,19,59.986739694,Set,2017_12_15_1743,
"[2.6, 2.6]",2,0,18,18,1,,,,,1,0,1,0,left,0.892133557645,VR,m,19,59.986739694,Set,2017_12_15_1743,
"[2.6, 2.6]",2,0,18,18,1,,,,,2,0,2,0,down,0.392145794554,VR,m,19,59.986739694,Set,2017_12_15_1743,
"[2.6, 2.6]",2,0,18,18,1,,,,,3,0,3,0,down,0.158794513758,VR,m,19,59.986739694,Set,2017_12_15_1743,
"[2.8, 2.8]",1,0,19,19,12,,,,,0,0,0,0,down,0.642139281379,VR,m,19,59.986739694,Set,2017_12_15_1743,
"[2.8, 2.8]",1,0,19,19,12,,,,,1,0,1,0,down,0.542145123531,VR,m,19,59.986739694,Set,2017_12_15_1743,
"[3.0, 3.0]",6,0,20,20,29,,,,,0,0,0,0,down,0.692139320861,VR,m,19,59.986739694,Set,2017_12_15_1743,
"[3.0, 3.0]",6,0,20,20,29,,,,,1,0,1,0,down,0.558756934566,VR,m,19,59.986739694,Set,2017_12_15_1743,
"[3.0, 3.0]",5,0,21,21,28,,,,,0,0,0,0,down,0.542134860269,VR,m,19,59.986739694,Set,2017_12_15_1743,
"[3.0, 3.0]",5,0,21,21,28,,,,,1,0,1,0,down,0.442106754868,VR,m,19,59.986739694,Set,2017_12_15_1743,
"[2.7, 2.7]",4,0,22,22,9,,,,,0,0,0,0,down,0.425472443661,VR,m,19,59.986739694,Set,2017_12_15_1743,
"[2.7, 2.7]",4,0,22,22,9,,,,,1,0,1,0,down,0.325494864839,VR,m,19,59.986739694,Set,2017_12_15_1743,
"[2.9, 2.9]",4,0,23,23,21,,,,,0,0,0,0,right,0.942146228772,VR,m,19,59.986739694,Set,2017_12_15_1743,
"[2.9, 2.9]",4,0,23,23,21,,,,,1,0,1,0,down,0.525496206945,VR,m,19,59.986739694,Set,2017_12_15_1743,
"[2.9, 2.9]",4,0,23,23,21,,,,,2,0,2,0,down,0.39213316291,VR,m,19,59.986739694,Set,2017_12_15_1743,
"[3.0, 3.0]",3,0,24,24,26,,,,,0,0,0,0,down,0.858834540326,VR,m,19,59.986739694,Set,2017_12_15_1743,
"[3.0, 3.0]",3,0,24,24,26,,,,,1,0,1,0,down,0.525389232615,VR,m,19,59.986739694,Set,2017_12_15_1743,
"[3.0, 3.0]",3,0,24,24,26,,,,,2,0,2,0,right,0.892100399564,VR,m,19,59.986739694,Set,2017_12_15_1743,
"[3.0, 3.0]",3,0,24,24,26,,,,,3,0,3,0,down,0.542121044418,VR,m,19,59.986739694,Set,2017_12_15_1743,
"[3.0, 3.0]",3,0,24,24,26,,,,,4,0,4,0,right,0.65880082958,VR,m,19,59.986739694,Set,2017_12_15_1743,
"[3.0, 3.0]",3,0,24,24,26,,,,,5,0,5,0,down,0.558790092677,VR,m,19,59.986739694,Set,2017_12_15_1743,
"[3.0, 3.0]",3,0,24,24,26,,,,,6,0,6,0,down,0.308802526968,VR,m,19,59.986739694,Set,2017_12_15_1743,
"[3.0, 3.0]",3,0,24,24,26,,,,,7,0,7,0,right,0.458801461151,VR,m,19,59.986739694,Set,2017_12_15_1743,
"[3.0, 3.0]",3,0,24,24,26,,,,,8,0,8,0,right,0.425440864521,VR,m,19,59.986739694,Set,2017_12_15_1743,
"[3.0, 3.0]",3,0,24,24,26,,,,,9,0,9,0,right,0.242118439142,VR,m,19,59.986739694,Set,2017_12_15_1743,
"[3.0, 3.0]",3,0,24,24,26,,,,,10,0,10,0,right,0.225447417179,VR,m,19,59.986739694,Set,2017_12_15_1743,
"[3.0, 3.0]",3,0,24,24,26,,,,,11,0,11,0,down,0.375466877827,VR,m,19,59.986739694,Set,2017_12_15_1743,
"[3.0, 3.0]",3,0,24,24,26,,,,,12,0,12,0,down,0.408805763815,VR,m,19,59.986739694,Set,2017_12_15_1743,
"[3.0, 3.0]",2,0,25,25,25,,,,,0,0,0,0,down,0.492142320873,VR,m,19,59.986739694,Set,2017_12_15_1743,
"[3.0, 3.0]",2,0,25,25,25,,,,,1,0,1,0,down,0.875457009359,VR,m,19,59.986739694,Set,2017_12_15_1743,
"[2.9, 2.9]",6,0,26,26,23,,,,,0,0,0,0,down,0.508825579716,VR,m,19,59.986739694,Set,2017_12_15_1743,
"[2.9, 2.9]",6,0,26,26,23,,,,,1,0,1,0,down,0.408831816603,VR,m,19,59.986739694,Set,2017_12_15_1743,
"[2.9, 2.9]",1,0,27,27,18,,,,,0,0,0,0,down,0.425475206808,VR,m,19,59.986739694,Set,2017_12_15_1743,
"[2.9, 2.9]",1,0,27,27,18,,,,,1,0,1,0,down,0.325475522608,VR,m,19,59.986739694,Set,2017_12_15_1743,
"[2.8, 2.8]",4,0,28,28,15,,,,,0,0,0,0,down,0.375430167071,VR,m,19,59.986739694,Set,2017_12_15_1743,
"[2.8, 2.8]",4,0,28,28,15,,,,,1,0,1,0,down,0.608796447981,VR,m,19,59.986739694,Set,2017_12_15_1743,
"[2.8, 2.8]",4,0,28,28,15,,,,,2,0,2,0,right,0.775464825187,VR,m,19,59.986739694,Set,2017_12_15_1743,
"[2.8, 2.8]",4,0,28,28,15,,,,,3,0,3,0,down,0.675473430485,VR,m,19,59.986739694,Set,2017_12_15_1743,
"[2.8, 2.8]",4,0,28,28,15,,,,,4,0,4,0,left,0.658808724373,VR,m,19,59.986739694,Set,2017_12_15_1743,
"[2.8, 2.8]",4,0,28,28,15,,,,,5,0,5,0,down,0.358790724247,VR,m,19,59.986739694,Set,2017_12_15_1743,
"[2.8, 2.8]",4,0,28,28,15,,,,,6,0,6,0,down,0.275454561983,VR,m,19,59.986739694,Set,2017_12_15_1743,
"[2.9, 2.9]",5,0,29,29,22,,,,,0,0,0,0,left,1.46692677352,VR,m,19,59.986739694,Set,2017_12_15_1743,
"[2.9, 2.9]",5,0,29,29,22,,,,,1,0,1,0,right,0.592101741669,VR,m,19,59.986739694,Set,2017_12_15_1743,
"[2.9, 2.9]",5,0,29,29,22,,,,,2,0,2,0,right,0.525455943542,VR,m,19,59.986739694,Set,2017_12_15_1743,
"[2.9, 2.9]",5,0,29,29,22,,,,,3,0,3,0,down,0.458800276974,VR,m,19,59.986739694,Set,2017_12_15_1743,
"[2.9, 2.9]",5,0,29,29,22,,,,,4,0,4,0,down,0.625274047721,VR,m,19,59.986739694,Set,2017_12_15_1743,
