number_of_fixational_trials,size,estimating_threshold.thisRepN,estimating_threshold.thisTrialN,estimating_threshold.thisN,estimating_threshold.thisIndex,trials_2.thisRepN,trials_2.thisTrialN,trials_2.thisN,trials_2.thisIndex,trials.thisRepN,trials.thisTrialN,trials.thisN,trials.thisIndex,trials_3.thisRepN,trials_3.thisTrialN,trials_3.thisN,trials_3.thisIndex,rating_up.response,rating_up.rt,rating_down.response,rating_down.rt,answer.keys,answer.rt,participant,gender,age,frameRate,expName,date,
,,0,0,0,0,,,,,,,,,,,,,0.03,33.267,0.05,25.618,,,ARM,m,22,60.0249737028,Set,2017_05_16_2215,
,,1,0,1,0,,,,,,,,,,,,,0.07,5.615,0.02,16.107,,,ARM,m,22,60.0249737028,Set,2017_05_16_2215,
,,2,0,2,0,,,,,,,,,,,,,0.06,7.697,0.09,16.68,,,ARM,m,22,60.0249737028,Set,2017_05_16_2215,
6,3,,,,,0,0,0,21,,,,,0,0,0,0,,,,,down,10.333488729,ARM,m,22,60.0249737028,Set,2017_05_16_2215,
6,3,,,,,0,0,0,21,,,,,1,0,1,0,,,,,down,13.7834480314,ARM,m,22,60.0249737028,Set,2017_05_16_2215,
4,1,,,,,0,1,1,3,,,,,0,0,0,0,,,,,down,1.16684837831,ARM,m,22,60.0249737028,Set,2017_05_16_2215,
4,1,,,,,0,1,1,3,,,,,1,0,1,0,,,,,down,0.600224290829,ARM,m,22,60.0249737028,Set,2017_05_16_2215,
1,3,,,,,0,2,2,16,,,,,0,0,0,0,,,,,right,8.16681916759,ARM,m,22,60.0249737028,Set,2017_05_16_2215,
1,3,,,,,0,2,2,16,,,,,1,0,1,0,,,,,down,0.733576282189,ARM,m,22,60.0249737028,Set,2017_05_16_2215,
1,3,,,,,0,2,2,16,,,,,2,0,2,0,,,,,down,0.80024221199,ARM,m,22,60.0249737028,Set,2017_05_16_2215,
5,1,,,,,0,3,3,4,,,,,0,0,0,0,,,,,right,1.13358015061,ARM,m,22,60.0249737028,Set,2017_05_16_2215,
5,1,,,,,0,3,3,4,,,,,1,0,1,0,,,,,left,0.816913628689,ARM,m,22,60.0249737028,Set,2017_05_16_2215,
5,1,,,,,0,3,3,4,,,,,2,0,2,0,,,,,down,0.716883549554,ARM,m,22,60.0249737028,Set,2017_05_16_2215,
5,1,,,,,0,3,3,4,,,,,3,0,3,0,,,,,down,0.700237790908,ARM,m,22,60.0249737028,Set,2017_05_16_2215,
5,1,,,,,0,3,3,4,,,,,4,0,4,0,,,,,left,0.700236606703,ARM,m,22,60.0249737028,Set,2017_05_16_2215,
5,1,,,,,0,3,3,4,,,,,5,0,5,0,,,,,left,1.18357466374,ARM,m,22,60.0249737028,Set,2017_05_16_2215,
5,1,,,,,0,3,3,4,,,,,6,0,6,0,,,,,down,0.716904865461,ARM,m,22,60.0249737028,Set,2017_05_16_2215,
5,1,,,,,0,3,3,4,,,,,7,0,7,0,,,,,down,0.583595900709,ARM,m,22,60.0249737028,Set,2017_05_16_2215,
7,1,,,,,0,4,4,6,,,,,0,0,0,0,,,,,down,2.40022413293,ARM,m,22,60.0249737028,Set,2017_05_16_2215,
7,1,,,,,0,4,4,6,,,,,1,0,1,0,,,,,down,0.483565032104,ARM,m,22,60.0249737028,Set,2017_05_16_2215,
2,2,,,,,0,5,5,9,,,,,0,0,0,0,,,,,left,1.06688777325,ARM,m,22,60.0249737028,Set,2017_05_16_2215,
2,2,,,,,0,5,5,9,,,,,1,0,1,0,,,,,left,1.81690376022,ARM,m,22,60.0249737028,Set,2017_05_16_2215,
2,2,,,,,0,5,5,9,,,,,2,0,2,0,,,,,left,0.850226461887,ARM,m,22,60.0249737028,Set,2017_05_16_2215,
2,2,,,,,0,5,5,9,,,,,3,0,3,0,,,,,left,0.866862352064,ARM,m,22,60.0249737028,Set,2017_05_16_2215,
2,2,,,,,0,5,5,9,,,,,4,0,4,0,,,,,left,1.03362704566,ARM,m,22,60.0249737028,Set,2017_05_16_2215,
2,2,,,,,0,5,5,9,,,,,5,0,5,0,,,,,down,0.650239330396,ARM,m,22,60.0249737028,Set,2017_05_16_2215,
2,2,,,,,0,5,5,9,,,,,6,0,6,0,,,,,left,0.533566650527,ARM,m,22,60.0249737028,Set,2017_05_16_2215,
2,2,,,,,0,5,5,9,,,,,7,0,7,0,,,,,left,1.76689148383,ARM,m,22,60.0249737028,Set,2017_05_16_2215,
2,2,,,,,0,5,5,9,,,,,8,0,8,0,,,,,left,1.20019318536,ARM,m,22,60.0249737028,Set,2017_05_16_2215,
2,2,,,,,0,5,5,9,,,,,9,0,9,0,,,,,right,0.750250462064,ARM,m,22,60.0249737028,Set,2017_05_16_2215,
2,2,,,,,0,5,5,9,,,,,10,0,10,0,,,,,down,0.550228593493,ARM,m,22,60.0249737028,Set,2017_05_16_2215,
2,2,,,,,0,5,5,9,,,,,11,0,11,0,,,,,left,0.700232659292,ARM,m,22,60.0249737028,Set,2017_05_16_2215,
2,2,,,,,0,5,5,9,,,,,12,0,12,0,,,,,down,0.583573005832,ARM,m,22,60.0249737028,Set,2017_05_16_2215,
2,2,,,,,0,5,5,9,,,,,13,0,13,0,,,,,left,0.683564400504,ARM,m,22,60.0249737028,Set,2017_05_16_2215,
2,2,,,,,0,5,5,9,,,,,14,0,14,0,,,,,down,0.550212409173,ARM,m,22,60.0249737028,Set,2017_05_16_2215,
2,2,,,,,0,5,5,9,,,,,15,0,15,0,,,,,down,0.466899141786,ARM,m,22,60.0249737028,Set,2017_05_16_2215,
2,2,,,,,0,5,5,9,,,,,16,0,16,0,,,,,left,0.450230488234,ARM,m,22,60.0249737028,Set,2017_05_16_2215,
2,2,,,,,0,5,5,9,,,,,17,0,17,0,,,,,down,1.21686539156,ARM,m,22,60.0249737028,Set,2017_05_16_2215,
2,2,,,,,0,5,5,9,,,,,18,0,18,0,,,,,down,1.73355338731,ARM,m,22,60.0249737028,Set,2017_05_16_2215,
5,2,,,,,0,6,6,12,,,,,0,0,0,0,,,,,down,5.40017597473,ARM,m,22,60.0249737028,Set,2017_05_16_2215,
5,2,,,,,0,6,6,12,,,,,1,0,1,0,,,,,right,0.83357517689,ARM,m,22,60.0249737028,Set,2017_05_16_2215,
5,2,,,,,0,6,6,12,,,,,2,0,2,0,,,,,right,1.4502411462,ARM,m,22,60.0249737028,Set,2017_05_16_2215,
5,2,,,,,0,6,6,12,,,,,3,0,3,0,,,,,left,0.583579321683,ARM,m,22,60.0249737028,Set,2017_05_16_2215,
5,2,,,,,0,6,6,12,,,,,4,0,4,0,,,,,down,0.666902457568,ARM,m,22,60.0249737028,Set,2017_05_16_2215,
5,2,,,,,0,6,6,12,,,,,5,0,5,0,,,,,left,0.63356120314,ARM,m,22,60.0249737028,Set,2017_05_16_2215,
5,2,,,,,0,6,6,12,,,,,6,0,6,0,,,,,left,0.383590611193,ARM,m,22,60.0249737028,Set,2017_05_16_2215,
5,2,,,,,0,6,6,12,,,,,7,0,7,0,,,,,down,0.383551137289,ARM,m,22,60.0249737028,Set,2017_05_16_2215,
5,2,,,,,0,6,6,12,,,,,8,0,8,0,,,,,down,0.500266843737,ARM,m,22,60.0249737028,Set,2017_05_16_2215,
3,1,,,,,0,7,7,2,,,,,0,0,0,0,,,,,down,1.40020163279,ARM,m,22,60.0249737028,Set,2017_05_16_2215,
3,1,,,,,0,7,7,2,,,,,1,0,1,0,,,,,left,0.683573479531,ARM,m,22,60.0249737028,Set,2017_05_16_2215,
3,1,,,,,0,7,7,2,,,,,2,0,2,0,,,,,down,0.60022823824,ARM,m,22,60.0249737028,Set,2017_05_16_2215,
3,1,,,,,0,7,7,2,,,,,3,0,3,0,,,,,down,0.383598506014,ARM,m,22,60.0249737028,Set,2017_05_16_2215,
6,2,,,,,0,8,8,13,,,,,0,0,0,0,,,,,right,1.41692910244,ARM,m,22,60.0249737028,Set,2017_05_16_2215,
6,2,,,,,0,8,8,13,,,,,1,0,1,0,,,,,left,0.733589703304,ARM,m,22,60.0249737028,Set,2017_05_16_2215,
6,2,,,,,0,8,8,13,,,,,2,0,2,0,,,,,left,0.550256619987,ARM,m,22,60.0249737028,Set,2017_05_16_2215,
6,2,,,,,0,8,8,13,,,,,3,0,3,0,,,,,down,0.366888010118,ARM,m,22,60.0249737028,Set,2017_05_16_2215,
6,2,,,,,0,8,8,13,,,,,4,0,4,0,,,,,down,0.633563966316,ARM,m,22,60.0249737028,Set,2017_05_16_2215,
3,3,,,,,0,9,9,18,,,,,0,0,0,0,,,,,down,0.633605019189,ARM,m,22,60.0249737028,Set,2017_05_16_2215,
3,3,,,,,0,9,9,18,,,,,1,0,1,0,,,,,left,0.400205580198,ARM,m,22,60.0249737028,Set,2017_05_16_2215,
3,3,,,,,0,9,9,18,,,,,2,0,2,0,,,,,down,0.700365291705,ARM,m,22,60.0249737028,Set,2017_05_16_2215,
3,3,,,,,0,9,9,18,,,,,3,0,3,0,,,,,right,0.400269133213,ARM,m,22,60.0249737028,Set,2017_05_16_2215,
3,3,,,,,0,9,9,18,,,,,4,0,4,0,,,,,left,0.466914141842,ARM,m,22,60.0249737028,Set,2017_05_16_2215,
3,3,,,,,0,9,9,18,,,,,5,0,5,0,,,,,down,0.416937392001,ARM,m,22,60.0249737028,Set,2017_05_16_2215,
3,3,,,,,0,9,9,18,,,,,6,0,6,0,,,,,down,0.283568821615,ARM,m,22,60.0249737028,Set,2017_05_16_2215,
1,1,,,,,0,10,10,0,,,,,0,0,0,0,,,,,down,5.5502116197,ARM,m,22,60.0249737028,Set,2017_05_16_2215,
1,1,,,,,0,10,10,0,,,,,1,0,1,0,,,,,left,0.583570242656,ARM,m,22,60.0249737028,Set,2017_05_16_2215,
1,1,,,,,0,10,10,0,,,,,2,0,2,0,,,,,down,0.616905970732,ARM,m,22,60.0249737028,Set,2017_05_16_2215,
1,1,,,,,0,10,10,0,,,,,3,0,3,0,,,,,left,1.10018165899,ARM,m,22,60.0249737028,Set,2017_05_16_2215,
1,1,,,,,0,10,10,0,,,,,4,0,4,0,,,,,right,1.2168878917,ARM,m,22,60.0249737028,Set,2017_05_16_2215,
1,1,,,,,0,10,10,0,,,,,5,0,5,0,,,,,down,0.783577900613,ARM,m,22,60.0249737028,Set,2017_05_16_2215,
1,1,,,,,0,10,10,0,,,,,6,0,6,0,,,,,down,0.333571624244,ARM,m,22,60.0249737028,Set,2017_05_16_2215,
8,2,,,,,0,11,11,15,,,,,0,0,0,0,,,,,down,0.583580505889,ARM,m,22,60.0249737028,Set,2017_05_16_2215,
8,2,,,,,0,11,11,15,,,,,1,0,1,0,,,,,down,29.4666259822,ARM,m,22,60.0249737028,Set,2017_05_16_2215,
7,2,,,,,0,12,12,14,,,,,0,0,0,0,,,,,left,1.10023060665,ARM,m,22,60.0249737028,Set,2017_05_16_2215,
7,2,,,,,0,12,12,14,,,,,1,0,1,0,,,,,right,1.48355555837,ARM,m,22,60.0249737028,Set,2017_05_16_2215,
7,2,,,,,0,12,12,14,,,,,2,0,2,0,,,,,down,0.933568150533,ARM,m,22,60.0249737028,Set,2017_05_16_2215,
7,2,,,,,0,12,12,14,,,,,3,0,3,0,,,,,right,1.20022752768,ARM,m,22,60.0249737028,Set,2017_05_16_2215,
7,2,,,,,0,12,12,14,,,,,4,0,4,0,,,,,down,0.766914773412,ARM,m,22,60.0249737028,Set,2017_05_16_2215,
7,2,,,,,0,12,12,14,,,,,5,0,5,0,,,,,down,0.416908576037,ARM,m,22,60.0249737028,Set,2017_05_16_2215,
4,2,,,,,0,13,13,11,,,,,0,0,0,0,,,,,down,0.633587255928,ARM,m,22,60.0249737028,Set,2017_05_16_2215,
4,2,,,,,0,13,13,11,,,,,1,0,1,0,,,,,down,0.583574190066,ARM,m,22,60.0249737028,Set,2017_05_16_2215,
1,2,,,,,0,14,14,8,,,,,0,0,0,0,,,,,down,0.866914062906,ARM,m,22,60.0249737028,Set,2017_05_16_2215,
1,2,,,,,0,14,14,8,,,,,1,0,1,0,,,,,down,0.316893102252,ARM,m,22,60.0249737028,Set,2017_05_16_2215,
3,2,,,,,0,15,15,10,,,,,0,0,0,0,,,,,down,0.600249948882,ARM,m,22,60.0249737028,Set,2017_05_16_2215,
3,2,,,,,0,15,15,10,,,,,1,0,1,0,,,,,down,0.85023514615,ARM,m,22,60.0249737028,Set,2017_05_16_2215,
6,1,,,,,0,16,16,5,,,,,0,0,0,0,,,,,down,0.716925391927,ARM,m,22,60.0249737028,Set,2017_05_16_2215,
6,1,,,,,0,16,16,5,,,,,1,0,1,0,,,,,down,1.26691398394,ARM,m,22,60.0249737028,Set,2017_05_16_2215,
4,3,,,,,0,17,17,19,,,,,0,0,0,0,,,,,down,0.816904944426,ARM,m,22,60.0249737028,Set,2017_05_16_2215,
4,3,,,,,0,17,17,19,,,,,1,0,1,0,,,,,down,2.03356072944,ARM,m,22,60.0249737028,Set,2017_05_16_2215,
4,3,,,,,0,17,17,19,,,,,2,0,2,0,,,,,left,0.900222948723,ARM,m,22,60.0249737028,Set,2017_05_16_2215,
4,3,,,,,0,17,17,19,,,,,3,0,3,0,,,,,left,0.466936247249,ARM,m,22,60.0249737028,Set,2017_05_16_2215,
4,3,,,,,0,17,17,19,,,,,4,0,4,0,,,,,down,0.516894444358,ARM,m,22,60.0249737028,Set,2017_05_16_2215,
4,3,,,,,0,17,17,19,,,,,5,0,5,0,,,,,left,0.416912128683,ARM,m,22,60.0249737028,Set,2017_05_16_2215,
4,3,,,,,0,17,17,19,,,,,6,0,6,0,,,,,down,0.583597874414,ARM,m,22,60.0249737028,Set,2017_05_16_2215,
4,3,,,,,0,17,17,19,,,,,7,0,7,0,,,,,left,0.566890931164,ARM,m,22,60.0249737028,Set,2017_05_16_2215,
4,3,,,,,0,17,17,19,,,,,8,0,8,0,,,,,down,0.350278172729,ARM,m,22,60.0249737028,Set,2017_05_16_2215,
4,3,,,,,0,17,17,19,,,,,9,0,9,0,,,,,down,0.416914497124,ARM,m,22,60.0249737028,Set,2017_05_16_2215,
5,3,,,,,0,18,18,20,,,,,0,0,0,0,,,,,down,1.2169068392,ARM,m,22,60.0249737028,Set,2017_05_16_2215,
5,3,,,,,0,18,18,20,,,,,1,0,1,0,,,,,down,0.816900997044,ARM,m,22,60.0249737028,Set,2017_05_16_2215,
5,3,,,,,0,18,18,20,,,,,2,0,2,0,,,,,left,4.83352701872,ARM,m,22,60.0249737028,Set,2017_05_16_2215,
5,3,,,,,0,18,18,20,,,,,3,0,3,0,,,,,down,0.516905102326,ARM,m,22,60.0249737028,Set,2017_05_16_2215,
5,3,,,,,0,18,18,20,,,,,4,0,4,0,,,,,down,0.400246238336,ARM,m,22,60.0249737028,Set,2017_05_16_2215,
7,3,,,,,0,19,19,22,,,,,0,0,0,0,,,,,down,1.41691212868,ARM,m,22,60.0249737028,Set,2017_05_16_2215,
7,3,,,,,0,19,19,22,,,,,1,0,1,0,,,,,down,0.800394976075,ARM,m,22,60.0249737028,Set,2017_05_16_2215,
2,1,,,,,0,20,20,1,,,,,0,0,0,0,,,,,down,1.38367508538,ARM,m,22,60.0249737028,Set,2017_05_16_2215,
2,1,,,,,0,20,20,1,,,,,1,0,1,0,,,,,down,2.75021296181,ARM,m,22,60.0249737028,Set,2017_05_16_2215,
8,1,,,,,0,21,21,7,,,,,0,0,0,0,,,,,down,0.716898549639,ARM,m,22,60.0249737028,Set,2017_05_16_2215,
8,1,,,,,0,21,21,7,,,,,1,0,1,0,,,,,left,0.900155448326,ARM,m,22,60.0249737028,Set,2017_05_16_2215,
8,1,,,,,0,21,21,7,,,,,2,0,2,0,,,,,down,0.666906404978,ARM,m,22,60.0249737028,Set,2017_05_16_2215,
8,1,,,,,0,21,21,7,,,,,3,0,3,0,,,,,down,0.966906641814,ARM,m,22,60.0249737028,Set,2017_05_16_2215,
8,1,,,,,0,21,21,7,,,,,4,0,4,0,,,,,left,0.533556782029,ARM,m,22,60.0249737028,Set,2017_05_16_2215,
8,1,,,,,0,21,21,7,,,,,5,0,5,0,,,,,down,0.450241146202,ARM,m,22,60.0249737028,Set,2017_05_16_2215,
8,1,,,,,0,21,21,7,,,,,6,0,6,0,,,,,down,0.666882325866,ARM,m,22,60.0249737028,Set,2017_05_16_2215,
2,3,,,,,0,22,22,17,,,,,0,0,0,0,,,,,down,0.566930010362,ARM,m,22,60.0249737028,Set,2017_05_16_2215,
2,3,,,,,0,22,22,17,,,,,1,0,1,0,,,,,down,0.916927918239,ARM,m,22,60.0249737028,Set,2017_05_16_2215,
2,3,,,,,0,22,22,17,,,,,2,0,2,0,,,,,left,0.483559505752,ARM,m,22,60.0249737028,Set,2017_05_16_2215,
2,3,,,,,0,22,22,17,,,,,3,0,3,0,,,,,down,0.916728969692,ARM,m,22,60.0249737028,Set,2017_05_16_2215,
2,3,,,,,0,22,22,17,,,,,4,0,4,0,,,,,down,0.583560374187,ARM,m,22,60.0249737028,Set,2017_05_16_2215,
8,3,,,,,0,23,23,23,,,,,0,0,0,0,,,,,down,19.6166904431,ARM,m,22,60.0249737028,Set,2017_05_16_2215,
8,3,,,,,0,23,23,23,,,,,1,0,1,0,,,,,down,22.3500211975,ARM,m,22,60.0249737028,Set,2017_05_16_2215,
