number_of_fixational_trials,size,estimating_threshold.thisRepN,estimating_threshold.thisTrialN,estimating_threshold.thisN,estimating_threshold.thisIndex,trials_2.thisRepN,trials_2.thisTrialN,trials_2.thisN,trials_2.thisIndex,trials.thisRepN,trials.thisTrialN,trials.thisN,trials.thisIndex,trials_3.thisRepN,trials_3.thisTrialN,trials_3.thisN,trials_3.thisIndex,rating_up.response,rating_up.rt,rating_down.response,rating_down.rt,answer.keys,answer.rt,participant,gender,age,frameRate,expName,date,
,,0,0,0,0,,,,,,,,,,,,,0.04,12.451,0.17,22.737,,,ASV,m,24,60.0015158461,Set,2017_05_17_1556,
,,1,0,1,0,,,,,,,,,,,,,0.27,31.312,0.28,16.33,,,ASV,m,24,60.0015158461,Set,2017_05_17_1556,
,,2,0,2,0,,,,,,,,,,,,,0.18,8.33,0.38,13.647,,,ASV,m,24,60.0015158461,Set,2017_05_17_1556,
2,3,,,,,0,0,0,17,,,,,0,0,0,0,,,,,down,7.15018801432,ASV,m,24,60.0015158461,Set,2017_05_17_1556,
2,3,,,,,0,0,0,17,,,,,1,0,1,0,,,,,down,3.1502503831,ASV,m,24,60.0015158461,Set,2017_05_17_1556,
6,2,,,,,0,1,1,13,,,,,0,0,0,0,,,,,down,3.41686594419,ASV,m,24,60.0015158461,Set,2017_05_17_1556,
6,2,,,,,0,1,1,13,,,,,1,0,1,0,,,,,right,4.03353862406,ASV,m,24,60.0015158461,Set,2017_05_17_1556,
6,2,,,,,0,1,1,13,,,,,2,0,2,0,,,,,down,8.53350151857,ASV,m,24,60.0015158461,Set,2017_05_17_1556,
6,2,,,,,0,1,1,13,,,,,3,0,3,0,,,,,down,0.983591084892,ASV,m,24,60.0015158461,Set,2017_05_17_1556,
1,2,,,,,0,2,2,8,,,,,0,0,0,0,,,,,down,2.88355192676,ASV,m,24,60.0015158461,Set,2017_05_17_1556,
1,2,,,,,0,2,2,8,,,,,1,0,1,0,,,,,right,2.7668934575,ASV,m,24,60.0015158461,Set,2017_05_17_1556,
1,2,,,,,0,2,2,8,,,,,2,0,2,0,,,,,right,1.08356866371,ASV,m,24,60.0015158461,Set,2017_05_17_1556,
1,2,,,,,0,2,2,8,,,,,3,0,3,0,,,,,right,1.35045146325,ASV,m,24,60.0015158461,Set,2017_05_17_1556,
1,2,,,,,0,2,2,8,,,,,4,0,4,0,,,,,down,1.43340551798,ASV,m,24,60.0015158461,Set,2017_05_17_1556,
1,2,,,,,0,2,2,8,,,,,5,0,5,0,,,,,down,2.51687115474,ASV,m,24,60.0015158461,Set,2017_05_17_1556,
3,2,,,,,0,3,3,10,,,,,0,0,0,0,,,,,right,1.70021489603,ASV,m,24,60.0015158461,Set,2017_05_17_1556,
3,2,,,,,0,3,3,10,,,,,1,0,1,0,,,,,down,1.31689507596,ASV,m,24,60.0015158461,Set,2017_05_17_1556,
3,2,,,,,0,3,3,10,,,,,2,0,2,0,,,,,down,1.45022575138,ASV,m,24,60.0015158461,Set,2017_05_17_1556,
5,1,,,,,0,4,4,4,,,,,0,0,0,0,,,,,right,2.53355599256,ASV,m,24,60.0015158461,Set,2017_05_17_1556,
5,1,,,,,0,4,4,4,,,,,1,0,1,0,,,,,right,0.800250106782,ASV,m,24,60.0015158461,Set,2017_05_17_1556,
5,1,,,,,0,4,4,4,,,,,2,0,2,0,,,,,right,1.10028152802,ASV,m,24,60.0015158461,Set,2017_05_17_1556,
5,1,,,,,0,4,4,4,,,,,3,0,3,0,,,,,down,0.916907786566,ASV,m,24,60.0015158461,Set,2017_05_17_1556,
5,1,,,,,0,4,4,4,,,,,4,0,4,0,,,,,down,0.700189238007,ASV,m,24,60.0015158461,Set,2017_05_17_1556,
8,3,,,,,0,5,5,23,,,,,0,0,0,0,,,,,left,2.90023005402,ASV,m,24,60.0015158461,Set,2017_05_17_1556,
8,3,,,,,0,5,5,23,,,,,1,0,1,0,,,,,down,0.833505308081,ASV,m,24,60.0015158461,Set,2017_05_17_1556,
8,3,,,,,0,5,5,23,,,,,2,0,2,0,,,,,right,0.833585834858,ASV,m,24,60.0015158461,Set,2017_05_17_1556,
8,3,,,,,0,5,5,23,,,,,3,0,3,0,,,,,down,0.466888878553,ASV,m,24,60.0015158461,Set,2017_05_17_1556,
8,3,,,,,0,5,5,23,,,,,4,0,4,0,,,,,down,0.566907904955,ASV,m,24,60.0015158461,Set,2017_05_17_1556,
4,1,,,,,0,6,6,3,,,,,0,0,0,0,,,,,right,1.6168984707,ASV,m,24,60.0015158461,Set,2017_05_17_1556,
4,1,,,,,0,6,6,3,,,,,1,0,1,0,,,,,down,0.600298896548,ASV,m,24,60.0015158461,Set,2017_05_17_1556,
4,1,,,,,0,6,6,3,,,,,2,0,2,0,,,,,down,0.533575729554,ASV,m,24,60.0015158461,Set,2017_05_17_1556,
2,1,,,,,0,7,7,1,,,,,0,0,0,0,,,,,down,0.783593690197,ASV,m,24,60.0015158461,Set,2017_05_17_1556,
2,1,,,,,0,7,7,1,,,,,1,0,1,0,,,,,down,0.55053846378,ASV,m,24,60.0015158461,Set,2017_05_17_1556,
7,3,,,,,0,8,8,22,,,,,0,0,0,0,,,,,left,0.9502494357,ASV,m,24,60.0015158461,Set,2017_05_17_1556,
7,3,,,,,0,8,8,22,,,,,1,0,1,0,,,,,down,1.33359096645,ASV,m,24,60.0015158461,Set,2017_05_17_1556,
7,3,,,,,0,8,8,22,,,,,2,0,2,0,,,,,down,0.533569808438,ASV,m,24,60.0015158461,Set,2017_05_17_1556,
7,3,,,,,0,8,8,22,,,,,3,0,3,0,,,,,left,0.933570124238,ASV,m,24,60.0015158461,Set,2017_05_17_1556,
7,3,,,,,0,8,8,22,,,,,4,0,4,0,,,,,down,0.866922747169,ASV,m,24,60.0015158461,Set,2017_05_17_1556,
7,3,,,,,0,8,8,22,,,,,5,0,5,0,,,,,down,0.433576045325,ASV,m,24,60.0015158461,Set,2017_05_17_1556,
3,1,,,,,0,9,9,2,,,,,0,0,0,0,,,,,left,0.95022259347,ASV,m,24,60.0015158461,Set,2017_05_17_1556,
3,1,,,,,0,9,9,2,,,,,1,0,1,0,,,,,left,0.883572453225,ASV,m,24,60.0015158461,Set,2017_05_17_1556,
3,1,,,,,0,9,9,2,,,,,2,0,2,0,,,,,down,0.516887339036,ASV,m,24,60.0015158461,Set,2017_05_17_1556,
3,1,,,,,0,9,9,2,,,,,3,0,3,0,,,,,down,0.683593216498,ASV,m,24,60.0015158461,Set,2017_05_17_1556,
7,1,,,,,0,10,10,6,,,,,0,0,0,0,,,,,left,1.01688339165,ASV,m,24,60.0015158461,Set,2017_05_17_1556,
7,1,,,,,0,10,10,6,,,,,1,0,1,0,,,,,left,0.816909286572,ASV,m,24,60.0015158461,Set,2017_05_17_1556,
7,1,,,,,0,10,10,6,,,,,2,0,2,0,,,,,down,0.533574940055,ASV,m,24,60.0015158461,Set,2017_05_17_1556,
7,1,,,,,0,10,10,6,,,,,3,0,3,0,,,,,down,0.366892746999,ASV,m,24,60.0015158461,Set,2017_05_17_1556,
6,1,,,,,0,11,11,5,,,,,0,0,0,0,,,,,right,1.38358034799,ASV,m,24,60.0015158461,Set,2017_05_17_1556,
6,1,,,,,0,11,11,5,,,,,1,0,1,0,,,,,down,0.80024458043,ASV,m,24,60.0015158461,Set,2017_05_17_1556,
6,1,,,,,0,11,11,5,,,,,2,0,2,0,,,,,down,0.633576992725,ASV,m,24,60.0015158461,Set,2017_05_17_1556,
6,1,,,,,0,11,11,5,,,,,3,0,3,0,,,,,left,1.00024750151,ASV,m,24,60.0015158461,Set,2017_05_17_1556,
6,1,,,,,0,11,11,5,,,,,4,0,4,0,,,,,down,0.516941813083,ASV,m,24,60.0015158461,Set,2017_05_17_1556,
6,1,,,,,0,11,11,5,,,,,5,0,5,0,,,,,down,0.433574466355,ASV,m,24,60.0015158461,Set,2017_05_17_1556,
6,1,,,,,0,11,11,5,,,,,6,0,6,0,,,,,left,0.566918168188,ASV,m,24,60.0015158461,Set,2017_05_17_1556,
6,1,,,,,0,11,11,5,,,,,7,0,7,0,,,,,down,0.383587848017,ASV,m,24,60.0015158461,Set,2017_05_17_1556,
6,1,,,,,0,11,11,5,,,,,8,0,8,0,,,,,down,0.316943234124,ASV,m,24,60.0015158461,Set,2017_05_17_1556,
7,2,,,,,0,12,12,14,,,,,0,0,0,0,,,,,left,0.700243711995,ASV,m,24,60.0015158461,Set,2017_05_17_1556,
7,2,,,,,0,12,12,14,,,,,1,0,1,0,,,,,down,0.633577782195,ASV,m,24,60.0015158461,Set,2017_05_17_1556,
7,2,,,,,0,12,12,14,,,,,2,0,2,0,,,,,down,0.56672671967,ASV,m,24,60.0015158461,Set,2017_05_17_1556,
3,3,,,,,0,13,13,18,,,,,0,0,0,0,,,,,down,1.21690328652,ASV,m,24,60.0015158461,Set,2017_05_17_1556,
3,3,,,,,0,13,13,18,,,,,1,0,1,0,,,,,left,0.983561874193,ASV,m,24,60.0015158461,Set,2017_05_17_1556,
3,3,,,,,0,13,13,18,,,,,2,0,2,0,,,,,down,0.466888483788,ASV,m,24,60.0015158461,Set,2017_05_17_1556,
3,3,,,,,0,13,13,18,,,,,3,0,3,0,,,,,down,0.466917694488,ASV,m,24,60.0015158461,Set,2017_05_17_1556,
5,3,,,,,0,14,14,20,,,,,0,0,0,0,,,,,left,0.633572255843,ASV,m,24,60.0015158461,Set,2017_05_17_1556,
5,3,,,,,0,14,14,20,,,,,1,0,1,0,,,,,left,0.666883115366,ASV,m,24,60.0015158461,Set,2017_05_17_1556,
5,3,,,,,0,14,14,20,,,,,2,0,2,0,,,,,down,0.833594913856,ASV,m,24,60.0015158461,Set,2017_05_17_1556,
5,3,,,,,0,14,14,20,,,,,3,0,3,0,,,,,down,0.616914260288,ASV,m,24,60.0015158461,Set,2017_05_17_1556,
8,1,,,,,0,15,15,7,,,,,0,0,0,0,,,,,down,0.983615163976,ASV,m,24,60.0015158461,Set,2017_05_17_1556,
8,1,,,,,0,15,15,7,,,,,1,0,1,0,,,,,down,0.58358445327,ASV,m,24,60.0015158461,Set,2017_05_17_1556,
1,1,,,,,0,16,16,0,,,,,0,0,0,0,,,,,down,4.20027647537,ASV,m,24,60.0015158461,Set,2017_05_17_1556,
1,1,,,,,0,16,16,0,,,,,1,0,1,0,,,,,down,1.10022744874,ASV,m,24,60.0015158461,Set,2017_05_17_1556,
4,3,,,,,0,17,17,19,,,,,0,0,0,0,,,,,left,0.633412386436,ASV,m,24,60.0015158461,Set,2017_05_17_1556,
4,3,,,,,0,17,17,19,,,,,1,0,1,0,,,,,left,0.533565466321,ASV,m,24,60.0015158461,Set,2017_05_17_1556,
4,3,,,,,0,17,17,19,,,,,2,0,2,0,,,,,left,1.00024394886,ASV,m,24,60.0015158461,Set,2017_05_17_1556,
4,3,,,,,0,17,17,19,,,,,3,0,3,0,,,,,down,0.516931155085,ASV,m,24,60.0015158461,Set,2017_05_17_1556,
4,3,,,,,0,17,17,19,,,,,4,0,4,0,,,,,left,0.550224646111,ASV,m,24,60.0015158461,Set,2017_05_17_1556,
4,3,,,,,0,17,17,19,,,,,5,0,5,0,,,,,down,0.400218211842,ASV,m,24,60.0015158461,Set,2017_05_17_1556,
4,3,,,,,0,17,17,19,,,,,6,0,6,0,,,,,down,0.516905891796,ASV,m,24,60.0015158461,Set,2017_05_17_1556,
6,3,,,,,0,18,18,21,,,,,0,0,0,0,,,,,left,0.45024706726,ASV,m,24,60.0015158461,Set,2017_05_17_1556,
6,3,,,,,0,18,18,21,,,,,1,0,1,0,,,,,left,0.48357016372,ASV,m,24,60.0015158461,Set,2017_05_17_1556,
6,3,,,,,0,18,18,21,,,,,2,0,2,0,,,,,left,1.33358701909,ASV,m,24,60.0015158461,Set,2017_05_17_1556,
6,3,,,,,0,18,18,21,,,,,3,0,3,0,,,,,down,0.50024236989,ASV,m,24,60.0015158461,Set,2017_05_17_1556,
6,3,,,,,0,18,18,21,,,,,4,0,4,0,,,,,down,0.466873878438,ASV,m,24,60.0015158461,Set,2017_05_17_1556,
6,3,,,,,0,18,18,21,,,,,5,0,5,0,,,,,left,0.500236843538,ASV,m,24,60.0015158461,Set,2017_05_17_1556,
6,3,,,,,0,18,18,21,,,,,6,0,6,0,,,,,left,0.866902220732,ASV,m,24,60.0015158461,Set,2017_05_17_1556,
6,3,,,,,0,18,18,21,,,,,7,0,7,0,,,,,down,0.533574150584,ASV,m,24,60.0015158461,Set,2017_05_17_1556,
6,3,,,,,0,18,18,21,,,,,8,0,8,0,,,,,left,0.883569690021,ASV,m,24,60.0015158461,Set,2017_05_17_1556,
6,3,,,,,0,18,18,21,,,,,9,0,9,0,,,,,down,0.666906010214,ASV,m,24,60.0015158461,Set,2017_05_17_1556,
6,3,,,,,0,18,18,21,,,,,10,0,10,0,,,,,down,0.733569966338,ASV,m,24,60.0015158461,Set,2017_05_17_1556,
8,2,,,,,0,19,19,15,,,,,0,0,0,0,,,,,down,0.550093197933,ASV,m,24,60.0015158461,Set,2017_05_17_1556,
8,2,,,,,0,19,19,15,,,,,1,0,1,0,,,,,left,0.583619190322,ASV,m,24,60.0015158461,Set,2017_05_17_1556,
8,2,,,,,0,19,19,15,,,,,2,0,2,0,,,,,down,0.40022729084,ASV,m,24,60.0015158461,Set,2017_05_17_1556,
8,2,,,,,0,19,19,15,,,,,3,0,3,0,,,,,down,0.450239961967,ASV,m,24,60.0015158461,Set,2017_05_17_1556,
4,2,,,,,0,20,20,11,,,,,0,0,0,0,,,,,left,0.650230251398,ASV,m,24,60.0015158461,Set,2017_05_17_1556,
4,2,,,,,0,20,20,11,,,,,1,0,1,0,,,,,left,0.783559742587,ASV,m,24,60.0015158461,Set,2017_05_17_1556,
4,2,,,,,0,20,20,11,,,,,2,0,2,0,,,,,down,0.533613229782,ASV,m,24,60.0015158461,Set,2017_05_17_1556,
4,2,,,,,0,20,20,11,,,,,3,0,3,0,,,,,left,0.550214777642,ASV,m,24,60.0015158461,Set,2017_05_17_1556,
4,2,,,,,0,20,20,11,,,,,4,0,4,0,,,,,left,0.616904391791,ASV,m,24,60.0015158461,Set,2017_05_17_1556,
4,2,,,,,0,20,20,11,,,,,5,0,5,0,,,,,down,0.466897957522,ASV,m,24,60.0015158461,Set,2017_05_17_1556,
4,2,,,,,0,20,20,11,,,,,6,0,6,0,,,,,left,0.733594045421,ASV,m,24,60.0015158461,Set,2017_05_17_1556,
4,2,,,,,0,20,20,11,,,,,7,0,7,0,,,,,down,0.583576558478,ASV,m,24,60.0015158461,Set,2017_05_17_1556,
4,2,,,,,0,20,20,11,,,,,8,0,8,0,,,,,down,0.650260646304,ASV,m,24,60.0015158461,Set,2017_05_17_1556,
5,2,,,,,0,21,21,12,,,,,0,0,0,0,,,,,left,0.583563926833,ASV,m,24,60.0015158461,Set,2017_05_17_1556,
5,2,,,,,0,21,21,12,,,,,1,0,1,0,,,,,left,1.0502499094,ASV,m,24,60.0015158461,Set,2017_05_17_1556,
5,2,,,,,0,21,21,12,,,,,2,0,2,0,,,,,left,0.850223698711,ASV,m,24,60.0015158461,Set,2017_05_17_1556,
5,2,,,,,0,21,21,12,,,,,3,0,3,0,,,,,down,0.366950773634,ASV,m,24,60.0015158461,Set,2017_05_17_1556,
5,2,,,,,0,21,21,12,,,,,4,0,4,0,,,,,down,0.53353151874,ASV,m,24,60.0015158461,Set,2017_05_17_1556,
2,2,,,,,0,22,22,9,,,,,0,0,0,0,,,,,down,1.15023577775,ASV,m,24,60.0015158461,Set,2017_05_17_1556,
2,2,,,,,0,22,22,9,,,,,1,0,1,0,,,,,left,0.483567005809,ASV,m,24,60.0015158461,Set,2017_05_17_1556,
2,2,,,,,0,22,22,9,,,,,2,0,2,0,,,,,left,0.866897483851,ASV,m,24,60.0015158461,Set,2017_05_17_1556,
2,2,,,,,0,22,22,9,,,,,3,0,3,0,,,,,down,0.517110761459,ASV,m,24,60.0015158461,Set,2017_05_17_1556,
2,2,,,,,0,22,22,9,,,,,4,0,4,0,,,,,down,0.550225040846,ASV,m,24,60.0015158461,Set,2017_05_17_1556,
1,3,,,,,0,23,23,16,,,,,0,0,0,0,,,,,left,2.60024797518,ASV,m,24,60.0015158461,Set,2017_05_17_1556,
1,3,,,,,0,23,23,16,,,,,1,0,1,0,,,,,down,0.666891010129,ASV,m,24,60.0015158461,Set,2017_05_17_1556,
1,3,,,,,0,23,23,16,,,,,2,0,2,0,,,,,down,0.616906365467,ASV,m,24,60.0015158461,Set,2017_05_17_1556,
