number_of_fixational_trials,size,estimating_threshold.thisRepN,estimating_threshold.thisTrialN,estimating_threshold.thisN,estimating_threshold.thisIndex,trials_2.thisRepN,trials_2.thisTrialN,trials_2.thisN,trials_2.thisIndex,trials.thisRepN,trials.thisTrialN,trials.thisN,trials.thisIndex,trials_3.thisRepN,trials_3.thisTrialN,trials_3.thisN,trials_3.thisIndex,rating_up.response,rating_up.rt,rating_down.response,rating_down.rt,answer.keys,answer.rt,participant,gender,age,frameRate,expName,date,
,,0,0,0,0,,,,,,,,,,,,,0.43,20.767,0.65,10.969,,,Mil,f,20,59.991095993,Set,2017_04_29_1731,
,,1,0,1,0,,,,,,,,,,,,,0.55,12.951,0.25,24.377,,,Mil,f,20,59.991095993,Set,2017_04_29_1731,
,,2,0,2,0,,,,,,,,,,,,,0.37,14.598,0.3,15.663,,,Mil,f,20,59.991095993,Set,2017_04_29_1731,
4,2,,,,,0,0,0,11,,,,,0,0,0,0,,,,,down,8.96670214061,Mil,f,20,59.991095993,Set,2017_04_29_1731,
4,2,,,,,0,0,0,11,,,,,1,0,1,0,,,,,right,14.6305715513,Mil,f,20,59.991095993,Set,2017_04_29_1731,
4,2,,,,,0,0,0,11,,,,,2,0,2,0,,,,,down,2.53355996648,Mil,f,20,59.991095993,Set,2017_04_29_1731,
4,2,,,,,0,0,0,11,,,,,3,0,3,0,,,,,left,8.60031318635,Mil,f,20,59.991095993,Set,2017_04_29_1731,
4,2,,,,,0,0,0,11,,,,,4,0,4,0,,,,,down,1.30035258137,Mil,f,20,59.991095993,Set,2017_04_29_1731,
4,2,,,,,0,0,0,11,,,,,5,0,5,0,,,,,down,1.16688166815,Mil,f,20,59.991095993,Set,2017_04_29_1731,
4,2,,,,,0,0,0,11,,,,,6,0,6,0,,,,,left,7.95011557973,Mil,f,20,59.991095993,Set,2017_04_29_1731,
4,2,,,,,0,0,0,11,,,,,7,0,7,0,,,,,down,1.85064989919,Mil,f,20,59.991095993,Set,2017_04_29_1731,
4,2,,,,,0,0,0,11,,,,,8,0,8,0,,,,,down,1.10027963351,Mil,f,20,59.991095993,Set,2017_04_29_1731,
6,2,,,,,0,1,1,13,,,,,0,0,0,0,,,,,down,2.75006473728,Mil,f,20,59.991095993,Set,2017_04_29_1731,
6,2,,,,,0,1,1,13,,,,,1,0,1,0,,,,,left,12.2001779486,Mil,f,20,59.991095993,Set,2017_04_29_1731,
6,2,,,,,0,1,1,13,,,,,2,0,2,0,,,,,down,1.13359209828,Mil,f,20,59.991095993,Set,2017_04_29_1731,
6,2,,,,,0,1,1,13,,,,,3,0,3,0,,,,,down,1.05026139651,Mil,f,20,59.991095993,Set,2017_04_29_1731,
8,2,,,,,0,2,2,15,,,,,0,0,0,0,,,,,left,6.96685766798,Mil,f,20,59.991095993,Set,2017_04_29_1731,
8,2,,,,,0,2,2,15,,,,,1,0,1,0,,,,,left,3.0502392911,Mil,f,20,59.991095993,Set,2017_04_29_1731,
8,2,,,,,0,2,2,15,,,,,2,0,2,0,,,,,down,1.15028681775,Mil,f,20,59.991095993,Set,2017_04_29_1731,
8,2,,,,,0,2,2,15,,,,,3,0,3,0,,,,,down,2.23356225595,Mil,f,20,59.991095993,Set,2017_04_29_1731,
2,3,,,,,0,3,3,17,,,,,0,0,0,0,,,,,right,4.61697001083,Mil,f,20,59.991095993,Set,2017_04_29_1731,
2,3,,,,,0,3,3,17,,,,,1,0,1,0,,,,,down,1.25039000268,Mil,f,20,59.991095993,Set,2017_04_29_1731,
2,3,,,,,0,3,3,17,,,,,2,0,2,0,,,,,left,2.31689532613,Mil,f,20,59.991095993,Set,2017_04_29_1731,
2,3,,,,,0,3,3,17,,,,,3,0,3,0,,,,,left,0.933581519232,Mil,f,20,59.991095993,Set,2017_04_29_1731,
2,3,,,,,0,3,3,17,,,,,4,0,4,0,,,,,left,0.866910405195,Mil,f,20,59.991095993,Set,2017_04_29_1731,
2,3,,,,,0,3,3,17,,,,,5,0,5,0,,,,,down,1.01676814104,Mil,f,20,59.991095993,Set,2017_04_29_1731,
2,3,,,,,0,3,3,17,,,,,6,0,6,0,,,,,left,1.45027663349,Mil,f,20,59.991095993,Set,2017_04_29_1731,
2,3,,,,,0,3,3,17,,,,,7,0,7,0,,,,,down,0.916921142081,Mil,f,20,59.991095993,Set,2017_04_29_1731,
2,3,,,,,0,3,3,17,,,,,8,0,8,0,,,,,left,1.41689469456,Mil,f,20,59.991095993,Set,2017_04_29_1731,
2,3,,,,,0,3,3,17,,,,,9,0,9,0,,,,,down,1.53358799298,Mil,f,20,59.991095993,Set,2017_04_29_1731,
2,3,,,,,0,3,3,17,,,,,10,0,10,0,,,,,down,0.550227843662,Mil,f,20,59.991095993,Set,2017_04_29_1731,
2,3,,,,,0,3,3,17,,,,,11,0,11,0,,,,,left,0.716914905206,Mil,f,20,59.991095993,Set,2017_04_29_1731,
2,3,,,,,0,3,3,17,,,,,12,0,12,0,,,,,left,0.933584677143,Mil,f,20,59.991095993,Set,2017_04_29_1731,
2,3,,,,,0,3,3,17,,,,,13,0,13,0,,,,,down,0.550117711333,Mil,f,20,59.991095993,Set,2017_04_29_1731,
2,3,,,,,0,3,3,17,,,,,14,0,14,0,,,,,left,0.633585782431,Mil,f,20,59.991095993,Set,2017_04_29_1731,
2,3,,,,,0,3,3,17,,,,,15,0,15,0,,,,,left,0.733594229852,Mil,f,20,59.991095993,Set,2017_04_29_1731,
2,3,,,,,0,3,3,17,,,,,16,0,16,0,,,,,left,0.800251133303,Mil,f,20,59.991095993,Set,2017_04_29_1731,
2,3,,,,,0,3,3,17,,,,,17,0,17,0,,,,,left,0.833541887405,Mil,f,20,59.991095993,Set,2017_04_29_1731,
2,3,,,,,0,3,3,17,,,,,18,0,18,0,,,,,left,3.05022113307,Mil,f,20,59.991095993,Set,2017_04_29_1731,
2,3,,,,,0,3,3,17,,,,,19,0,19,0,,,,,left,0.61700553741,Mil,f,20,59.991095993,Set,2017_04_29_1731,
2,3,,,,,0,3,3,17,,,,,20,0,20,0,,,,,left,0.633560519083,Mil,f,20,59.991095993,Set,2017_04_29_1731,
2,3,,,,,0,3,3,17,,,,,21,0,21,0,,,,,left,0.833576624485,Mil,f,20,59.991095993,Set,2017_04_29_1731,
2,3,,,,,0,3,3,17,,,,,22,0,22,0,,,,,down,1.5169193263,Mil,f,20,59.991095993,Set,2017_04_29_1731,
2,3,,,,,0,3,3,17,,,,,23,0,23,0,,,,,down,0.850267791306,Mil,f,20,59.991095993,Set,2017_04_29_1731,
2,3,,,,,0,3,3,17,,,,,24,0,24,0,,,,,left,0.816907957807,Mil,f,20,59.991095993,Set,2017_04_29_1731,
2,3,,,,,0,3,3,17,,,,,25,0,25,0,,,,,left,0.933589414024,Mil,f,20,59.991095993,Set,2017_04_29_1731,
2,3,,,,,0,3,3,17,,,,,26,0,26,0,,,,,down,0.883578282373,Mil,f,20,59.991095993,Set,2017_04_29_1731,
2,3,,,,,0,3,3,17,,,,,27,0,27,0,,,,,left,1.01690906307,Mil,f,20,59.991095993,Set,2017_04_29_1731,
2,3,,,,,0,3,3,17,,,,,28,0,28,0,,,,,left,1.41692943161,Mil,f,20,59.991095993,Set,2017_04_29_1731,
2,3,,,,,0,3,3,17,,,,,29,0,29,0,,,,,down,0.633580256079,Mil,f,20,59.991095993,Set,2017_04_29_1731,
2,3,,,,,0,3,3,17,,,,,30,0,30,0,,,,,down,1.20028926514,Mil,f,20,59.991095993,Set,2017_04_29_1731,
6,1,,,,,0,4,4,5,,,,,0,0,0,0,,,,,down,1.68358428241,Mil,f,20,59.991095993,Set,2017_04_29_1731,
6,1,,,,,0,4,4,5,,,,,1,0,1,0,,,,,down,2.7169346422,Mil,f,20,59.991095993,Set,2017_04_29_1731,
7,3,,,,,0,5,5,22,,,,,0,0,0,0,,,,,left,3.80026297548,Mil,f,20,59.991095993,Set,2017_04_29_1731,
7,3,,,,,0,5,5,22,,,,,1,0,1,0,,,,,down,1.40025050173,Mil,f,20,59.991095993,Set,2017_04_29_1731,
7,3,,,,,0,5,5,22,,,,,2,0,2,0,,,,,left,2.81689572087,Mil,f,20,59.991095993,Set,2017_04_29_1731,
7,3,,,,,0,5,5,22,,,,,3,0,3,0,,,,,left,0.917003247945,Mil,f,20,59.991095993,Set,2017_04_29_1731,
7,3,,,,,0,5,5,22,,,,,4,0,4,0,,,,,down,0.883601572015,Mil,f,20,59.991095993,Set,2017_04_29_1731,
7,3,,,,,0,5,5,22,,,,,5,0,5,0,,,,,left,1.51693235268,Mil,f,20,59.991095993,Set,2017_04_29_1731,
7,3,,,,,0,5,5,22,,,,,6,0,6,0,,,,,left,0.683600861492,Mil,f,20,59.991095993,Set,2017_04_29_1731,
7,3,,,,,0,5,5,22,,,,,7,0,7,0,,,,,down,0.766937484295,Mil,f,20,59.991095993,Set,2017_04_29_1731,
7,3,,,,,0,5,5,22,,,,,8,0,8,0,,,,,left,0.616920273664,Mil,f,20,59.991095993,Set,2017_04_29_1731,
7,3,,,,,0,5,5,22,,,,,9,0,9,0,,,,,left,1.13352262409,Mil,f,20,59.991095993,Set,2017_04_29_1731,
7,3,,,,,0,5,5,22,,,,,10,0,10,0,,,,,down,0.55025310698,Mil,f,20,59.991095993,Set,2017_04_29_1731,
7,3,,,,,0,5,5,22,,,,,11,0,11,0,,,,,left,0.883561703318,Mil,f,20,59.991095993,Set,2017_04_29_1731,
7,3,,,,,0,5,5,22,,,,,12,0,12,0,,,,,down,0.51690787886,Mil,f,20,59.991095993,Set,2017_04_29_1731,
7,3,,,,,0,5,5,22,,,,,13,0,13,0,,,,,left,0.716934247437,Mil,f,20,59.991095993,Set,2017_04_29_1731,
7,3,,,,,0,5,5,22,,,,,14,0,14,0,,,,,left,0.70021860674,Mil,f,20,59.991095993,Set,2017_04_29_1731,
7,3,,,,,0,5,5,22,,,,,15,0,15,0,,,,,down,0.483580808708,Mil,f,20,59.991095993,Set,2017_04_29_1731,
7,3,,,,,0,5,5,22,,,,,16,0,16,0,,,,,down,0.63355262432,Mil,f,20,59.991095993,Set,2017_04_29_1731,
5,2,,,,,0,6,6,12,,,,,0,0,0,0,,,,,down,1.68354915059,Mil,f,20,59.991095993,Set,2017_04_29_1731,
5,2,,,,,0,6,6,12,,,,,1,0,1,0,,,,,left,1.3335699139,Mil,f,20,59.991095993,Set,2017_04_29_1731,
5,2,,,,,0,6,6,12,,,,,2,0,2,0,,,,,down,0.600226343668,Mil,f,20,59.991095993,Set,2017_04_29_1731,
5,2,,,,,0,6,6,12,,,,,3,0,3,0,,,,,left,0.716884510242,Mil,f,20,59.991095993,Set,2017_04_29_1731,
5,2,,,,,0,6,6,12,,,,,4,0,4,0,,,,,down,0.516896036657,Mil,f,20,59.991095993,Set,2017_04_29_1731,
5,2,,,,,0,6,6,12,,,,,5,0,5,0,,,,,down,0.733590282442,Mil,f,20,59.991095993,Set,2017_04_29_1731,
5,2,,,,,0,6,6,12,,,,,6,0,6,0,,,,,left,0.800222712045,Mil,f,20,59.991095993,Set,2017_04_29_1731,
5,2,,,,,0,6,6,12,,,,,7,0,7,0,,,,,down,0.38358183502,Mil,f,20,59.991095993,Set,2017_04_29_1731,
5,2,,,,,0,6,6,12,,,,,8,0,8,0,,,,,down,0.450248606969,Mil,f,20,59.991095993,Set,2017_04_29_1731,
7,1,,,,,0,7,7,6,,,,,0,0,0,0,,,,,down,1.71687622071,Mil,f,20,59.991095993,Set,2017_04_29_1731,
7,1,,,,,0,7,7,6,,,,,1,0,1,0,,,,,down,4.81686532593,Mil,f,20,59.991095993,Set,2017_04_29_1731,
5,1,,,,,0,8,8,4,,,,,0,0,0,0,,,,,down,1.1169107999,Mil,f,20,59.991095993,Set,2017_04_29_1731,
5,1,,,,,0,8,8,4,,,,,1,0,1,0,,,,,down,0.866911984136,Mil,f,20,59.991095993,Set,2017_04_29_1731,
1,1,,,,,0,9,9,0,,,,,0,0,0,0,,,,,down,1.00024868592,Mil,f,20,59.991095993,Set,2017_04_29_1731,
1,1,,,,,0,9,9,0,,,,,1,0,1,0,,,,,down,0.983554755891,Mil,f,20,59.991095993,Set,2017_04_29_1731,
5,3,,,,,0,10,10,20,,,,,0,0,0,0,,,,,down,0.93357441391,Mil,f,20,59.991095993,Set,2017_04_29_1731,
5,3,,,,,0,10,10,20,,,,,1,0,1,0,,,,,down,3.9835776508,Mil,f,20,59.991095993,Set,2017_04_29_1731,
5,3,,,,,0,10,10,20,,,,,2,0,2,0,,,,,left,0.950215448829,Mil,f,20,59.991095993,Set,2017_04_29_1731,
5,3,,,,,0,10,10,20,,,,,3,0,3,0,,,,,left,0.683555861178,Mil,f,20,59.991095993,Set,2017_04_29_1731,
5,3,,,,,0,10,10,20,,,,,4,0,4,0,,,,,down,0.766912615712,Mil,f,20,59.991095993,Set,2017_04_29_1731,
5,3,,,,,0,10,10,20,,,,,5,0,5,0,,,,,left,3.71688964186,Mil,f,20,59.991095993,Set,2017_04_29_1731,
5,3,,,,,0,10,10,20,,,,,6,0,6,0,,,,,left,0.566920194717,Mil,f,20,59.991095993,Set,2017_04_29_1731,
5,3,,,,,0,10,10,20,,,,,7,0,7,0,,,,,left,0.900268264988,Mil,f,20,59.991095993,Set,2017_04_29_1731,
5,3,,,,,0,10,10,20,,,,,8,0,8,0,,,,,left,0.383571177081,Mil,f,20,59.991095993,Set,2017_04_29_1731,
5,3,,,,,0,10,10,20,,,,,9,0,9,0,,,,,down,0.733570150769,Mil,f,20,59.991095993,Set,2017_04_29_1731,
5,3,,,,,0,10,10,20,,,,,10,0,10,0,,,,,left,0.450254528056,Mil,f,20,59.991095993,Set,2017_04_29_1731,
5,3,,,,,0,10,10,20,,,,,11,0,11,0,,,,,left,0.466886878712,Mil,f,20,59.991095993,Set,2017_04_29_1731,
5,3,,,,,0,10,10,20,,,,,12,0,12,0,,,,,down,0.950259659672,Mil,f,20,59.991095993,Set,2017_04_29_1731,
5,3,,,,,0,10,10,20,,,,,13,0,13,0,,,,,down,4.23354725586,Mil,f,20,59.991095993,Set,2017_04_29_1731,
1,3,,,,,0,11,11,16,,,,,0,0,0,0,,,,,down,2.56688979975,Mil,f,20,59.991095993,Set,2017_04_29_1731,
1,3,,,,,0,11,11,16,,,,,1,0,1,0,,,,,down,0.666916799935,Mil,f,20,59.991095993,Set,2017_04_29_1731,
1,3,,,,,0,11,11,16,,,,,2,0,2,0,,,,,left,0.91693416849,Mil,f,20,59.991095993,Set,2017_04_29_1731,
1,3,,,,,0,11,11,16,,,,,3,0,3,0,,,,,down,0.616959352861,Mil,f,20,59.991095993,Set,2017_04_29_1731,
1,3,,,,,0,11,11,16,,,,,4,0,4,0,,,,,left,0.500249475386,Mil,f,20,59.991095993,Set,2017_04_29_1731,
1,3,,,,,0,11,11,16,,,,,5,0,5,0,,,,,down,0.416900615644,Mil,f,20,59.991095993,Set,2017_04_29_1731,
1,3,,,,,0,11,11,16,,,,,6,0,6,0,,,,,down,0.550254291215,Mil,f,20,59.991095993,Set,2017_04_29_1731,
4,1,,,,,0,12,12,3,,,,,0,0,0,0,,,,,left,1.73355396642,Mil,f,20,59.991095993,Set,2017_04_29_1731,
4,1,,,,,0,12,12,3,,,,,1,0,1,0,,,,,down,0.60023423846,Mil,f,20,59.991095993,Set,2017_04_29_1731,
4,1,,,,,0,12,12,3,,,,,2,0,2,0,,,,,left,0.783543782134,Mil,f,20,59.991095993,Set,2017_04_29_1731,
4,1,,,,,0,12,12,3,,,,,3,0,3,0,,,,,down,0.416958247602,Mil,f,20,59.991095993,Set,2017_04_29_1731,
4,1,,,,,0,12,12,3,,,,,4,0,4,0,,,,,down,0.433579545555,Mil,f,20,59.991095993,Set,2017_04_29_1731,
1,2,,,,,0,13,13,8,,,,,0,0,0,0,,,,,right,3.38353841368,Mil,f,20,59.991095993,Set,2017_04_29_1731,
1,2,,,,,0,13,13,8,,,,,1,0,1,0,,,,,down,0.516891299776,Mil,f,20,59.991095993,Set,2017_04_29_1731,
1,2,,,,,0,13,13,8,,,,,2,0,2,0,,,,,down,0.466893984005,Mil,f,20,59.991095993,Set,2017_04_29_1731,
8,3,,,,,0,14,14,23,,,,,0,0,0,0,,,,,left,1.1335664402,Mil,f,20,59.991095993,Set,2017_04_29_1731,
8,3,,,,,0,14,14,23,,,,,1,0,1,0,,,,,left,0.666906931467,Mil,f,20,59.991095993,Set,2017_04_29_1731,
8,3,,,,,0,14,14,23,,,,,2,0,2,0,,,,,down,0.51690393145,Mil,f,20,59.991095993,Set,2017_04_29_1731,
8,3,,,,,0,14,14,23,,,,,3,0,3,0,,,,,left,0.933578756056,Mil,f,20,59.991095993,Set,2017_04_29_1731,
8,3,,,,,0,14,14,23,,,,,4,0,4,0,,,,,left,1.38357828237,Mil,f,20,59.991095993,Set,2017_04_29_1731,
8,3,,,,,0,14,14,23,,,,,5,0,5,0,,,,,left,0.383583808725,Mil,f,20,59.991095993,Set,2017_04_29_1731,
8,3,,,,,0,14,14,23,,,,,6,0,6,0,,,,,left,0.533571808657,Mil,f,20,59.991095993,Set,2017_04_29_1731,
8,3,,,,,0,14,14,23,,,,,7,0,7,0,,,,,left,0.600243712193,Mil,f,20,59.991095993,Set,2017_04_29_1731,
8,3,,,,,0,14,14,23,,,,,8,0,8,0,,,,,left,0.616904089344,Mil,f,20,59.991095993,Set,2017_04_29_1731,
8,3,,,,,0,14,14,23,,,,,9,0,9,0,,,,,left,1.55023415951,Mil,f,20,59.991095993,Set,2017_04_29_1731,
8,3,,,,,0,14,14,23,,,,,10,0,10,0,,,,,left,0.616867378587,Mil,f,20,59.991095993,Set,2017_04_29_1731,
8,3,,,,,0,14,14,23,,,,,11,0,11,0,,,,,down,0.866906063049,Mil,f,20,59.991095993,Set,2017_04_29_1731,
8,3,,,,,0,14,14,23,,,,,12,0,12,0,,,,,down,0.333564782282,Mil,f,20,59.991095993,Set,2017_04_29_1731,
2,2,,,,,0,15,15,9,,,,,0,0,0,0,,,,,right,0.650255633343,Mil,f,20,59.991095993,Set,2017_04_29_1731,
2,2,,,,,0,15,15,9,,,,,1,0,1,0,,,,,down,1.23356541386,Mil,f,20,59.991095993,Set,2017_04_29_1731,
2,2,,,,,0,15,15,9,,,,,2,0,2,0,,,,,down,0.816892168194,Mil,f,20,59.991095993,Set,2017_04_29_1731,
2,1,,,,,0,16,16,1,,,,,0,0,0,0,,,,,down,0.850244501693,Mil,f,20,59.991095993,Set,2017_04_29_1731,
2,1,,,,,0,16,16,1,,,,,1,0,1,0,,,,,down,0.416928642138,Mil,f,20,59.991095993,Set,2017_04_29_1731,
3,2,,,,,0,17,17,10,,,,,0,0,0,0,,,,,down,0.650229580526,Mil,f,20,59.991095993,Set,2017_04_29_1731,
3,2,,,,,0,17,17,10,,,,,1,0,1,0,,,,,left,1.48354330845,Mil,f,20,59.991095993,Set,2017_04_29_1731,
3,2,,,,,0,17,17,10,,,,,2,0,2,0,,,,,left,0.683581519232,Mil,f,20,59.991095993,Set,2017_04_29_1731,
3,2,,,,,0,17,17,10,,,,,3,0,3,0,,,,,down,1.53356312439,Mil,f,20,59.991095993,Set,2017_04_29_1731,
3,2,,,,,0,17,17,10,,,,,4,0,4,0,,,,,left,2.5835489927,Mil,f,20,59.991095993,Set,2017_04_29_1731,
3,2,,,,,0,17,17,10,,,,,5,0,5,0,,,,,left,0.516958800232,Mil,f,20,59.991095993,Set,2017_04_29_1731,
3,2,,,,,0,17,17,10,,,,,6,0,6,0,,,,,down,1.483587914,Mil,f,20,59.991095993,Set,2017_04_29_1731,
3,2,,,,,0,17,17,10,,,,,7,0,7,0,,,,,left,0.583566755988,Mil,f,20,59.991095993,Set,2017_04_29_1731,
3,2,,,,,0,17,17,10,,,,,8,0,8,0,,,,,down,0.400239054259,Mil,f,20,59.991095993,Set,2017_04_29_1731,
3,2,,,,,0,17,17,10,,,,,9,0,9,0,,,,,left,0.783424965543,Mil,f,20,59.991095993,Set,2017_04_29_1731,
3,2,,,,,0,17,17,10,,,,,10,0,10,0,,,,,down,0.433591782465,Mil,f,20,59.991095993,Set,2017_04_29_1731,
3,2,,,,,0,17,17,10,,,,,11,0,11,0,,,,,left,0.466914115736,Mil,f,20,59.991095993,Set,2017_04_29_1731,
3,2,,,,,0,17,17,10,,,,,12,0,12,0,,,,,left,0.533582861361,Mil,f,20,59.991095993,Set,2017_04_29_1731,
3,2,,,,,0,17,17,10,,,,,13,0,13,0,,,,,left,0.483574887621,Mil,f,20,59.991095993,Set,2017_04_29_1731,
3,2,,,,,0,17,17,10,,,,,14,0,14,0,,,,,left,1.11690369461,Mil,f,20,59.991095993,Set,2017_04_29_1731,
3,2,,,,,0,17,17,10,,,,,15,0,15,0,,,,,left,0.500233685802,Mil,f,20,59.991095993,Set,2017_04_29_1731,
3,2,,,,,0,17,17,10,,,,,16,0,16,0,,,,,down,0.516890510306,Mil,f,20,59.991095993,Set,2017_04_29_1731,
3,2,,,,,0,17,17,10,,,,,17,0,17,0,,,,,down,0.483567782299,Mil,f,20,59.991095993,Set,2017_04_29_1731,
7,2,,,,,0,18,18,14,,,,,0,0,0,0,,,,,left,1.35029384412,Mil,f,20,59.991095993,Set,2017_04_29_1731,
7,2,,,,,0,18,18,14,,,,,1,0,1,0,,,,,down,0.750244738505,Mil,f,20,59.991095993,Set,2017_04_29_1731,
7,2,,,,,0,18,18,14,,,,,2,0,2,0,,,,,down,0.566895720869,Mil,f,20,59.991095993,Set,2017_04_29_1731,
6,3,,,,,0,19,19,21,,,,,0,0,0,0,,,,,left,1.08356912443,Mil,f,20,59.991095993,Set,2017_04_29_1731,
6,3,,,,,0,19,19,21,,,,,1,0,1,0,,,,,left,0.433590598259,Mil,f,20,59.991095993,Set,2017_04_29_1731,
6,3,,,,,0,19,19,21,,,,,2,0,2,0,,,,,left,0.483572124445,Mil,f,20,59.991095993,Set,2017_04_29_1731,
6,3,,,,,0,19,19,21,,,,,3,0,3,0,,,,,left,0.433562571765,Mil,f,20,59.991095993,Set,2017_04_29_1731,
6,3,,,,,0,19,19,21,,,,,4,0,4,0,,,,,down,0.433600861492,Mil,f,20,59.991095993,Set,2017_04_29_1731,
6,3,,,,,0,19,19,21,,,,,5,0,5,0,,,,,down,1.40023589635,Mil,f,20,59.991095993,Set,2017_04_29_1731,
8,1,,,,,0,20,20,7,,,,,0,0,0,0,,,,,left,2.13357196655,Mil,f,20,59.991095993,Set,2017_04_29_1731,
8,1,,,,,0,20,20,7,,,,,1,0,1,0,,,,,left,0.71692832635,Mil,f,20,59.991095993,Set,2017_04_29_1731,
8,1,,,,,0,20,20,7,,,,,2,0,2,0,,,,,down,0.46690977359,Mil,f,20,59.991095993,Set,2017_04_29_1731,
8,1,,,,,0,20,20,7,,,,,3,0,3,0,,,,,down,0.466923194763,Mil,f,20,59.991095993,Set,2017_04_29_1731,
8,1,,,,,0,20,20,7,,,,,4,0,4,0,,,,,left,0.76690393145,Mil,f,20,59.991095993,Set,2017_04_29_1731,
8,1,,,,,0,20,20,7,,,,,5,0,5,0,,,,,down,0.45025413332,Mil,f,20,59.991095993,Set,2017_04_29_1731,
8,1,,,,,0,20,20,7,,,,,6,0,6,0,,,,,down,0.500067105721,Mil,f,20,59.991095993,Set,2017_04_29_1731,
8,1,,,,,0,20,20,7,,,,,7,0,7,0,,,,,left,0.46691056306,Mil,f,20,59.991095993,Set,2017_04_29_1731,
8,1,,,,,0,20,20,7,,,,,8,0,8,0,,,,,left,0.53354891378,Mil,f,20,59.991095993,Set,2017_04_29_1731,
8,1,,,,,0,20,20,7,,,,,9,0,9,0,,,,,left,0.950265975494,Mil,f,20,59.991095993,Set,2017_04_29_1731,
8,1,,,,,0,20,20,7,,,,,10,0,10,0,,,,,down,0.700239527971,Mil,f,20,59.991095993,Set,2017_04_29_1731,
8,1,,,,,0,20,20,7,,,,,11,0,11,0,,,,,down,0.366891852405,Mil,f,20,59.991095993,Set,2017_04_29_1731,
3,3,,,,,0,21,21,18,,,,,0,0,0,0,,,,,down,2.48355080848,Mil,f,20,59.991095993,Set,2017_04_29_1731,
3,3,,,,,0,21,21,18,,,,,1,0,1,0,,,,,left,0.533591545623,Mil,f,20,59.991095993,Set,2017_04_29_1731,
3,3,,,,,0,21,21,18,,,,,2,0,2,0,,,,,down,0.416948773869,Mil,f,20,59.991095993,Set,2017_04_29_1731,
3,3,,,,,0,21,21,18,,,,,3,0,3,0,,,,,down,0.950216633064,Mil,f,20,59.991095993,Set,2017_04_29_1731,
3,3,,,,,0,21,21,18,,,,,4,0,4,0,,,,,left,0.433588229818,Mil,f,20,59.991095993,Set,2017_04_29_1731,
3,3,,,,,0,21,21,18,,,,,5,0,5,0,,,,,down,0.616905668314,Mil,f,20,59.991095993,Set,2017_04_29_1731,
3,3,,,,,0,21,21,18,,,,,6,0,6,0,,,,,down,0.800043895026,Mil,f,20,59.991095993,Set,2017_04_29_1731,
3,1,,,,,0,22,22,2,,,,,0,0,0,0,,,,,down,0.950290844106,Mil,f,20,59.991095993,Set,2017_04_29_1731,
3,1,,,,,0,22,22,2,,,,,1,0,1,0,,,,,down,0.583588861395,Mil,f,20,59.991095993,Set,2017_04_29_1731,
4,3,,,,,0,23,23,19,,,,,0,0,0,0,,,,,left,2.15023037,Mil,f,20,59.991095993,Set,2017_04_29_1731,
4,3,,,,,0,23,23,19,,,,,1,0,1,0,,,,,down,1.15019010656,Mil,f,20,59.991095993,Set,2017_04_29_1731,
4,3,,,,,0,23,23,19,,,,,2,0,2,0,,,,,down,0.566903220897,Mil,f,20,59.991095993,Set,2017_04_29_1731,
