number_of_fixational_trials,size,estimating_threshold.thisRepN,estimating_threshold.thisTrialN,estimating_threshold.thisN,estimating_threshold.thisIndex,trials_2.thisRepN,trials_2.thisTrialN,trials_2.thisN,trials_2.thisIndex,trials.thisRepN,trials.thisTrialN,trials.thisN,trials.thisIndex,trials_3.thisRepN,trials_3.thisTrialN,trials_3.thisN,trials_3.thisIndex,rating_up.response,rating_up.rt,rating_down.response,rating_down.rt,answer.keys,answer.rt,participant,gender,age,frameRate,expName,date,
,,0,0,0,0,,,,,,,,,,,,,0.0,12.651,0.21,41.569,,,NAT,f,28,60.0043582391,Set,2017_05_05_1426,
,,1,0,1,0,,,,,,,,,,,,,0.32,15.88,0.28,23.713,,,NAT,f,28,60.0043582391,Set,2017_05_05_1426,
,,2,0,2,0,,,,,,,,,,,,,0.23,9.014,0.15,34.796,,,NAT,f,28,60.0043582391,Set,2017_05_05_1426,
6,3,,,,,0,0,0,21,,,,,0,0,0,0,,,,,down,3.0669011944,NAT,f,28,60.0043582391,Set,2017_05_05_1426,
6,3,,,,,0,0,0,21,,,,,1,0,1,0,,,,,down,1.28357908483,NAT,f,28,60.0043582391,Set,2017_05_05_1426,
1,1,,,,,0,1,1,0,,,,,0,0,0,0,,,,,right,6.26684845724,NAT,f,28,60.0043582391,Set,2017_05_05_1426,
1,1,,,,,0,1,1,0,,,,,1,0,1,0,,,,,down,0.800237475123,NAT,f,28,60.0043582391,Set,2017_05_05_1426,
1,1,,,,,0,1,1,0,,,,,2,0,2,0,,,,,down,0.733564834736,NAT,f,28,60.0043582391,Set,2017_05_05_1426,
8,3,,,,,0,2,2,23,,,,,0,0,0,0,,,,,down,1.83338846525,NAT,f,28,60.0043582391,Set,2017_05_05_1426,
8,3,,,,,0,2,2,23,,,,,1,0,1,0,,,,,down,0.816890339069,NAT,f,28,60.0043582391,Set,2017_05_05_1426,
5,3,,,,,0,3,3,20,,,,,0,0,0,0,,,,,down,1.75027848853,NAT,f,28,60.0043582391,Set,2017_05_05_1426,
5,3,,,,,0,3,3,20,,,,,1,0,1,0,,,,,down,0.600239290921,NAT,f,28,60.0043582391,Set,2017_05_05_1426,
4,1,,,,,0,4,4,3,,,,,0,0,0,0,,,,,right,1.81697678696,NAT,f,28,60.0043582391,Set,2017_05_05_1426,
4,1,,,,,0,4,4,3,,,,,1,0,1,0,,,,,right,0.717421973866,NAT,f,28,60.0043582391,Set,2017_05_05_1426,
4,1,,,,,0,4,4,3,,,,,2,0,2,0,,,,,down,0.76690174704,NAT,f,28,60.0043582391,Set,2017_05_05_1426,
4,1,,,,,0,4,4,3,,,,,3,0,3,0,,,,,down,1.28358342695,NAT,f,28,60.0043582391,Set,2017_05_05_1426,
1,3,,,,,0,5,5,16,,,,,0,0,0,0,,,,,down,1.00006157932,NAT,f,28,60.0043582391,Set,2017_05_05_1426,
1,3,,,,,0,5,5,16,,,,,1,0,1,0,,,,,down,0.716960523714,NAT,f,28,60.0043582391,Set,2017_05_05_1426,
4,2,,,,,0,6,6,11,,,,,0,0,0,0,,,,,down,0.733566808434,NAT,f,28,60.0043582391,Set,2017_05_05_1426,
4,2,,,,,0,6,6,11,,,,,1,0,1,0,,,,,down,0.383409031165,NAT,f,28,60.0043582391,Set,2017_05_05_1426,
7,1,,,,,0,7,7,6,,,,,0,0,0,0,,,,,down,2.48355476889,NAT,f,28,60.0043582391,Set,2017_05_05_1426,
7,1,,,,,0,7,7,6,,,,,1,0,1,0,,,,,down,0.450237988283,NAT,f,28,60.0043582391,Set,2017_05_05_1426,
3,2,,,,,0,8,8,10,,,,,0,0,0,0,,,,,down,0.80023589616,NAT,f,28,60.0043582391,Set,2017_05_05_1426,
3,2,,,,,0,8,8,10,,,,,1,0,1,0,,,,,down,0.533578492716,NAT,f,28,60.0043582391,Set,2017_05_05_1426,
7,3,,,,,0,9,9,22,,,,,0,0,0,0,,,,,left,1.80022050133,NAT,f,28,60.0043582391,Set,2017_05_05_1426,
7,3,,,,,0,9,9,22,,,,,1,0,1,0,,,,,down,1.0168948391,NAT,f,28,60.0043582391,Set,2017_05_05_1426,
7,3,,,,,0,9,9,22,,,,,2,0,2,0,,,,,down,0.566911852358,NAT,f,28,60.0043582391,Set,2017_05_05_1426,
2,2,,,,,0,10,10,9,,,,,0,0,0,0,,,,,down,0.833571229508,NAT,f,28,60.0043582391,Set,2017_05_05_1426,
2,2,,,,,0,10,10,9,,,,,1,0,1,0,,,,,down,0.45025772525,NAT,f,28,60.0043582391,Set,2017_05_05_1426,
1,2,,,,,0,11,11,8,,,,,0,0,0,0,,,,,down,0.816915997122,NAT,f,28,60.0043582391,Set,2017_05_05_1426,
1,2,,,,,0,11,11,8,,,,,1,0,1,0,,,,,down,0.600301264982,NAT,f,28,60.0043582391,Set,2017_05_05_1426,
3,3,,,,,0,12,12,18,,,,,0,0,0,0,,,,,down,1.03356665053,NAT,f,28,60.0043582391,Set,2017_05_05_1426,
3,3,,,,,0,12,12,18,,,,,1,0,1,0,,,,,down,0.416891996982,NAT,f,28,60.0043582391,Set,2017_05_05_1426,
4,3,,,,,0,13,13,19,,,,,0,0,0,0,,,,,down,0.600630082765,NAT,f,28,60.0043582391,Set,2017_05_05_1426,
4,3,,,,,0,13,13,19,,,,,1,0,1,0,,,,,down,0.233659177407,NAT,f,28,60.0043582391,Set,2017_05_05_1426,
6,2,,,,,0,14,14,13,,,,,0,0,0,0,,,,,down,0.600299686026,NAT,f,28,60.0043582391,Set,2017_05_05_1426,
6,2,,,,,0,14,14,13,,,,,1,0,1,0,,,,,down,0.466896773323,NAT,f,28,60.0043582391,Set,2017_05_05_1426,
2,3,,,,,0,15,15,17,,,,,0,0,0,0,,,,,right,1.73353483455,NAT,f,28,60.0043582391,Set,2017_05_05_1426,
2,3,,,,,0,15,15,17,,,,,1,0,1,0,,,,,down,0.3835835059,NAT,f,28,60.0043582391,Set,2017_05_05_1426,
2,3,,,,,0,15,15,17,,,,,2,0,2,0,,,,,right,0.683579005876,NAT,f,28,60.0043582391,Set,2017_05_05_1426,
2,3,,,,,0,15,15,17,,,,,3,0,3,0,,,,,down,0.66690877339,NAT,f,28,60.0043582391,Set,2017_05_05_1426,
2,3,,,,,0,15,15,17,,,,,4,0,4,0,,,,,right,1.00038763393,NAT,f,28,60.0043582391,Set,2017_05_05_1426,
2,3,,,,,0,15,15,17,,,,,5,0,5,0,,,,,right,0.966904668108,NAT,f,28,60.0043582391,Set,2017_05_05_1426,
2,3,,,,,0,15,15,17,,,,,6,0,6,0,,,,,down,0.733553387297,NAT,f,28,60.0043582391,Set,2017_05_05_1426,
2,3,,,,,0,15,15,17,,,,,7,0,7,0,,,,,down,0.433567755805,NAT,f,28,60.0043582391,Set,2017_05_05_1426,
8,2,,,,,0,16,16,15,,,,,0,0,0,0,,,,,right,1.50022973823,NAT,f,28,60.0043582391,Set,2017_05_05_1426,
8,2,,,,,0,16,16,15,,,,,1,0,1,0,,,,,down,1.78358184799,NAT,f,28,60.0043582391,Set,2017_05_05_1426,
8,2,,,,,0,16,16,15,,,,,2,0,2,0,,,,,right,1.23357272951,NAT,f,28,60.0043582391,Set,2017_05_05_1426,
8,2,,,,,0,16,16,15,,,,,3,0,3,0,,,,,down,1.43359341386,NAT,f,28,60.0043582391,Set,2017_05_05_1426,
8,2,,,,,0,16,16,15,,,,,4,0,4,0,,,,,down,0.583576953228,NAT,f,28,60.0043582391,Set,2017_05_05_1426,
8,2,,,,,0,16,16,15,,,,,5,0,5,0,,,,,right,1.26690095755,NAT,f,28,60.0043582391,Set,2017_05_05_1426,
8,2,,,,,0,16,16,15,,,,,6,0,6,0,,,,,right,0.900208343366,NAT,f,28,60.0043582391,Set,2017_05_05_1426,
8,2,,,,,0,16,16,15,,,,,7,0,7,0,,,,,down,0.516897997011,NAT,f,28,60.0043582391,Set,2017_05_05_1426,
8,2,,,,,0,16,16,15,,,,,8,0,8,0,,,,,down,0.850239093554,NAT,f,28,60.0043582391,Set,2017_05_05_1426,
5,1,,,,,0,17,17,4,,,,,0,0,0,0,,,,,down,0.716910786563,NAT,f,28,60.0043582391,Set,2017_05_05_1426,
5,1,,,,,0,17,17,4,,,,,1,0,1,0,,,,,down,0.550258988405,NAT,f,28,60.0043582391,Set,2017_05_05_1426,
5,1,,,,,0,17,17,4,,,,,2,0,2,0,,,,,right,0.633540676696,NAT,f,28,60.0043582391,Set,2017_05_05_1426,
5,1,,,,,0,17,17,4,,,,,3,0,3,0,,,,,right,0.600238501444,NAT,f,28,60.0043582391,Set,2017_05_05_1426,
5,1,,,,,0,17,17,4,,,,,4,0,4,0,,,,,right,0.383580742724,NAT,f,28,60.0043582391,Set,2017_05_05_1426,
5,1,,,,,0,17,17,4,,,,,5,0,5,0,,,,,right,0.883549953061,NAT,f,28,60.0043582391,Set,2017_05_05_1426,
5,1,,,,,0,17,17,4,,,,,6,0,6,0,,,,,right,0.45025772525,NAT,f,28,60.0043582391,Set,2017_05_05_1426,
5,1,,,,,0,17,17,4,,,,,7,0,7,0,,,,,right,0.433586308551,NAT,f,28,60.0043582391,Set,2017_05_05_1426,
5,1,,,,,0,17,17,4,,,,,8,0,8,0,,,,,right,0.600244027795,NAT,f,28,60.0043582391,Set,2017_05_05_1426,
5,1,,,,,0,17,17,4,,,,,9,0,9,0,,,,,right,0.483575295322,NAT,f,28,60.0043582391,Set,2017_05_05_1426,
5,1,,,,,0,17,17,4,,,,,10,0,10,0,,,,,right,0.650224330304,NAT,f,28,60.0043582391,Set,2017_05_05_1426,
5,1,,,,,0,17,17,4,,,,,11,0,11,0,,,,,right,0.683418347005,NAT,f,28,60.0043582391,Set,2017_05_05_1426,
5,1,,,,,0,17,17,4,,,,,12,0,12,0,,,,,right,0.483566216324,NAT,f,28,60.0043582391,Set,2017_05_05_1426,
5,1,,,,,0,17,17,4,,,,,13,0,13,0,,,,,right,0.533569018968,NAT,f,28,60.0043582391,Set,2017_05_05_1426,
5,1,,,,,0,17,17,4,,,,,14,0,14,0,,,,,right,0.533570203188,NAT,f,28,60.0043582391,Set,2017_05_05_1426,
5,1,,,,,0,17,17,4,,,,,15,0,15,0,,,,,right,0.516899181232,NAT,f,28,60.0043582391,Set,2017_05_05_1426,
5,1,,,,,0,17,17,4,,,,,16,0,16,0,,,,,down,0.750227961908,NAT,f,28,60.0043582391,Set,2017_05_05_1426,
5,1,,,,,0,17,17,4,,,,,17,0,17,0,,,,,down,0.550240435667,NAT,f,28,60.0043582391,Set,2017_05_05_1426,
8,1,,,,,0,18,18,7,,,,,0,0,0,0,,,,,right,0.966907036542,NAT,f,28,60.0043582391,Set,2017_05_05_1426,
8,1,,,,,0,18,18,7,,,,,1,0,1,0,,,,,right,1.0168987865,NAT,f,28,60.0043582391,Set,2017_05_05_1426,
8,1,,,,,0,18,18,7,,,,,2,0,2,0,,,,,down,0.483548453056,NAT,f,28,60.0043582391,Set,2017_05_05_1426,
8,1,,,,,0,18,18,7,,,,,3,0,3,0,,,,,down,0.333535308244,NAT,f,28,60.0043582391,Set,2017_05_05_1426,
6,1,,,,,0,19,19,5,,,,,0,0,0,0,,,,,right,0.966907431284,NAT,f,28,60.0043582391,Set,2017_05_05_1426,
6,1,,,,,0,19,19,5,,,,,1,0,1,0,,,,,right,0.483578847983,NAT,f,28,60.0043582391,Set,2017_05_05_1426,
6,1,,,,,0,19,19,5,,,,,2,0,2,0,,,,,down,0.633574624269,NAT,f,28,60.0043582391,Set,2017_05_05_1426,
6,1,,,,,0,19,19,5,,,,,3,0,3,0,,,,,down,0.333579124293,NAT,f,28,60.0043582391,Set,2017_05_05_1426,
7,2,,,,,0,20,20,14,,,,,0,0,0,0,,,,,down,0.616909918135,NAT,f,28,60.0043582391,Set,2017_05_05_1426,
7,2,,,,,0,20,20,14,,,,,1,0,1,0,,,,,down,0.650286304364,NAT,f,28,60.0043582391,Set,2017_05_05_1426,
5,2,,,,,0,21,21,12,,,,,0,0,0,0,,,,,down,0.933556703101,NAT,f,28,60.0043582391,Set,2017_05_05_1426,
5,2,,,,,0,21,21,12,,,,,1,0,1,0,,,,,down,0.316906918117,NAT,f,28,60.0043582391,Set,2017_05_05_1426,
2,1,,,,,0,22,22,1,,,,,0,0,0,0,,,,,down,1.21690565495,NAT,f,28,60.0043582391,Set,2017_05_05_1426,
2,1,,,,,0,22,22,1,,,,,1,0,1,0,,,,,down,0.683578611133,NAT,f,28,60.0043582391,Set,2017_05_05_1426,
3,1,,,,,0,23,23,2,,,,,0,0,0,0,,,,,down,0.550236488278,NAT,f,28,60.0043582391,Set,2017_05_05_1426,
3,1,,,,,0,23,23,2,,,,,1,0,1,0,,,,,down,1.1335919928,NAT,f,28,60.0043582391,Set,2017_05_05_1426,
