number_of_fixational_trials,size,estimating_threshold.thisRepN,estimating_threshold.thisTrialN,estimating_threshold.thisN,estimating_threshold.thisIndex,trials_2.thisRepN,trials_2.thisTrialN,trials_2.thisN,trials_2.thisIndex,trials.thisRepN,trials.thisTrialN,trials.thisN,trials.thisIndex,trials_3.thisRepN,trials_3.thisTrialN,trials_3.thisN,trials_3.thisIndex,rating_up.response,rating_up.rt,rating_down.response,rating_down.rt,answer.keys,answer.rt,participant,gender,age,frameRate,expName,date,
,,0,0,0,0,,,,,,,,,,,,,0.01,8.851,0.72,21.835,,,SEV,f,19,59.9993368451,Set,2017_04_28_1342,
,,1,0,1,0,,,,,,,,,,,,,0.01,9.114,0.64,20.914,,,SEV,f,19,59.9993368451,Set,2017_04_28_1342,
,,2,0,2,0,,,,,,,,,,,,,0.01,6.73,0.57,43.213,,,SEV,f,19,59.9993368451,Set,2017_04_28_1342,
7,2,,,,,0,0,0,14,,,,,0,0,0,0,,,,,right,6.63350722927,SEV,f,19,59.9993368451,Set,2017_04_28_1342,
7,2,,,,,0,0,0,14,,,,,1,0,1,0,,,,,left,2.50006552678,SEV,f,19,59.9993368451,Set,2017_04_28_1342,
7,2,,,,,0,0,0,14,,,,,2,0,2,0,,,,,left,0.666930221108,SEV,f,19,59.9993368451,Set,2017_04_28_1342,
7,2,,,,,0,0,0,14,,,,,3,0,3,0,,,,,down,1.20022729103,SEV,f,19,59.9993368451,Set,2017_04_28_1342,
7,2,,,,,0,0,0,14,,,,,4,0,4,0,,,,,left,0.500236448977,SEV,f,19,59.9993368451,Set,2017_04_28_1342,
7,2,,,,,0,0,0,14,,,,,5,0,5,0,,,,,down,0.583566361223,SEV,f,19,59.9993368451,Set,2017_04_28_1342,
7,2,,,,,0,0,0,14,,,,,6,0,6,0,,,,,down,0.733534229425,SEV,f,19,59.9993368451,Set,2017_04_28_1342,
5,1,,,,,0,1,1,4,,,,,0,0,0,0,,,,,left,0.46692753688,SEV,f,19,59.9993368451,Set,2017_04_28_1342,
5,1,,,,,0,1,1,4,,,,,1,0,1,0,,,,,left,1.35022752787,SEV,f,19,59.9993368451,Set,2017_04_28_1342,
5,1,,,,,0,1,1,4,,,,,2,0,2,0,,,,,left,0.46710872234,SEV,f,19,59.9993368451,Set,2017_04_28_1342,
5,1,,,,,0,1,1,4,,,,,3,0,3,0,,,,,left,0.466923194734,SEV,f,19,59.9993368451,Set,2017_04_28_1342,
5,1,,,,,0,1,1,4,,,,,4,0,4,0,,,,,left,0.433565334912,SEV,f,19,59.9993368451,Set,2017_04_28_1342,
5,1,,,,,0,1,1,4,,,,,5,0,5,0,,,,,left,1.01688577342,SEV,f,19,59.9993368451,Set,2017_04_28_1342,
5,1,,,,,0,1,1,4,,,,,6,0,6,0,,,,,down,0.450224133092,SEV,f,19,59.9993368451,Set,2017_04_28_1342,
5,1,,,,,0,1,1,4,,,,,7,0,7,0,,,,,left,0.950249791204,SEV,f,19,59.9993368451,Set,2017_04_28_1342,
5,1,,,,,0,1,1,4,,,,,8,0,8,0,,,,,left,0.600227527873,SEV,f,19,59.9993368451,Set,2017_04_28_1342,
5,1,,,,,0,1,1,4,,,,,9,0,9,0,,,,,down,0.583552150609,SEV,f,19,59.9993368451,Set,2017_04_28_1342,
5,1,,,,,0,1,1,4,,,,,10,0,10,0,,,,,down,0.633563282259,SEV,f,19,59.9993368451,Set,2017_04_28_1342,
3,1,,,,,0,2,2,2,,,,,0,0,0,0,,,,,down,0.78357970345,SEV,f,19,59.9993368451,Set,2017_04_28_1342,
3,1,,,,,0,2,2,2,,,,,1,0,1,0,,,,,left,0.566883089225,SEV,f,19,59.9993368451,Set,2017_04_28_1342,
3,1,,,,,0,2,2,2,,,,,2,0,2,0,,,,,down,0.466919642087,SEV,f,19,59.9993368451,Set,2017_04_28_1342,
3,1,,,,,0,2,2,2,,,,,3,0,3,0,,,,,down,0.433591387729,SEV,f,19,59.9993368451,Set,2017_04_28_1342,
2,1,,,,,0,3,3,1,,,,,0,0,0,0,,,,,down,0.700063474127,SEV,f,19,59.9993368451,Set,2017_04_28_1342,
2,1,,,,,0,3,3,1,,,,,1,0,1,0,,,,,down,0.883575124462,SEV,f,19,59.9993368451,Set,2017_04_28_1342,
4,3,,,,,0,4,4,19,,,,,0,0,0,0,,,,,right,0.716896352445,SEV,f,19,59.9993368451,Set,2017_04_28_1342,
4,3,,,,,0,4,4,19,,,,,1,0,1,0,,,,,down,0.816894931399,SEV,f,19,59.9993368451,Set,2017_04_28_1342,
4,3,,,,,0,4,4,19,,,,,2,0,2,0,,,,,left,0.500240396359,SEV,f,19,59.9993368451,Set,2017_04_28_1342,
4,3,,,,,0,4,4,19,,,,,3,0,3,0,,,,,down,2.26687590493,SEV,f,19,59.9993368451,Set,2017_04_28_1342,
4,3,,,,,0,4,4,19,,,,,4,0,4,0,,,,,left,0.4335629665,SEV,f,19,59.9993368451,Set,2017_04_28_1342,
4,3,,,,,0,4,4,19,,,,,5,0,5,0,,,,,down,0.516933142178,SEV,f,19,59.9993368451,Set,2017_04_28_1342,
4,3,,,,,0,4,4,19,,,,,6,0,6,0,,,,,left,0.416928642138,SEV,f,19,59.9993368451,Set,2017_04_28_1342,
4,3,,,,,0,4,4,19,,,,,7,0,7,0,,,,,down,0.683567308617,SEV,f,19,59.9993368451,Set,2017_04_28_1342,
4,3,,,,,0,4,4,19,,,,,8,0,8,0,,,,,left,0.500204869808,SEV,f,19,59.9993368451,Set,2017_04_28_1342,
4,3,,,,,0,4,4,19,,,,,9,0,9,0,,,,,left,0.466882931301,SEV,f,19,59.9993368451,Set,2017_04_28_1342,
4,3,,,,,0,4,4,19,,,,,10,0,10,0,,,,,left,0.500213948835,SEV,f,19,59.9993368451,Set,2017_04_28_1342,
4,3,,,,,0,4,4,19,,,,,11,0,11,0,,,,,left,0.400239448994,SEV,f,19,59.9993368451,Set,2017_04_28_1342,
4,3,,,,,0,4,4,19,,,,,12,0,12,0,,,,,down,0.616895010346,SEV,f,19,59.9993368451,Set,2017_04_28_1342,
4,3,,,,,0,4,4,19,,,,,13,0,13,0,,,,,left,0.566860983759,SEV,f,19,59.9993368451,Set,2017_04_28_1342,
4,3,,,,,0,4,4,19,,,,,14,0,14,0,,,,,left,0.633555387496,SEV,f,19,59.9993368451,Set,2017_04_28_1342,
4,3,,,,,0,4,4,19,,,,,15,0,15,0,,,,,left,0.833578598162,SEV,f,19,59.9993368451,Set,2017_04_28_1342,
4,3,,,,,0,4,4,19,,,,,16,0,16,0,,,,,down,0.883571177052,SEV,f,19,59.9993368451,Set,2017_04_28_1342,
4,3,,,,,0,4,4,19,,,,,17,0,17,0,,,,,down,0.516896036657,SEV,f,19,59.9993368451,Set,2017_04_28_1342,
3,2,,,,,0,5,5,10,,,,,0,0,0,0,,,,,down,0.65022523838,SEV,f,19,59.9993368451,Set,2017_04_28_1342,
3,2,,,,,0,5,5,10,,,,,1,0,1,0,,,,,down,0.866726061824,SEV,f,19,59.9993368451,Set,2017_04_28_1342,
1,1,,,,,0,6,6,0,,,,,0,0,0,0,,,,,down,0.733597387793,SEV,f,19,59.9993368451,Set,2017_04_28_1342,
1,1,,,,,0,6,6,0,,,,,1,0,1,0,,,,,left,0.683572045498,SEV,f,19,59.9993368451,Set,2017_04_28_1342,
1,1,,,,,0,6,6,0,,,,,2,0,2,0,,,,,down,0.500234870007,SEV,f,19,59.9993368451,Set,2017_04_28_1342,
1,1,,,,,0,6,6,0,,,,,3,0,3,0,,,,,down,0.466892799799,SEV,f,19,59.9993368451,Set,2017_04_28_1342,
1,2,,,,,0,7,7,8,,,,,0,0,0,0,,,,,down,0.633550650615,SEV,f,19,59.9993368451,Set,2017_04_28_1342,
1,2,,,,,0,7,7,8,,,,,1,0,1,0,,,,,down,0.416895484028,SEV,f,19,59.9993368451,Set,2017_04_28_1342,
5,3,,,,,0,8,8,20,,,,,0,0,0,0,,,,,down,1.00020921195,SEV,f,19,59.9993368451,Set,2017_04_28_1342,
5,3,,,,,0,8,8,20,,,,,1,0,1,0,,,,,left,0.933572834969,SEV,f,19,59.9993368451,Set,2017_04_28_1342,
5,3,,,,,0,8,8,20,,,,,2,0,2,0,,,,,down,0.4335629665,SEV,f,19,59.9993368451,Set,2017_04_28_1342,
5,3,,,,,0,8,8,20,,,,,3,0,3,0,,,,,down,0.46684503631,SEV,f,19,59.9993368451,Set,2017_04_28_1342,
8,1,,,,,0,9,9,7,,,,,0,0,0,0,,,,,down,0.666896668234,SEV,f,19,59.9993368451,Set,2017_04_28_1342,
8,1,,,,,0,9,9,7,,,,,1,0,1,0,,,,,down,0.366897773521,SEV,f,19,59.9993368451,Set,2017_04_28_1342,
8,1,,,,,0,9,9,7,,,,,2,0,2,0,,,,,left,0.566893747164,SEV,f,19,59.9993368451,Set,2017_04_28_1342,
8,1,,,,,0,9,9,7,,,,,3,0,3,0,,,,,down,0.433581519232,SEV,f,19,59.9993368451,Set,2017_04_28_1342,
8,1,,,,,0,9,9,7,,,,,4,0,4,0,,,,,left,0.583563203312,SEV,f,19,59.9993368451,Set,2017_04_28_1342,
8,1,,,,,0,9,9,7,,,,,5,0,5,0,,,,,left,0.466999379481,SEV,f,19,59.9993368451,Set,2017_04_28_1342,
8,1,,,,,0,9,9,7,,,,,6,0,6,0,,,,,down,0.533584045566,SEV,f,19,59.9993368451,Set,2017_04_28_1342,
8,1,,,,,0,9,9,7,,,,,7,0,7,0,,,,,left,0.450128211407,SEV,f,19,59.9993368451,Set,2017_04_28_1342,
8,1,,,,,0,9,9,7,,,,,8,0,8,0,,,,,left,0.500239606918,SEV,f,19,59.9993368451,Set,2017_04_28_1342,
8,1,,,,,0,9,9,7,,,,,9,0,9,0,,,,,down,0.583577413956,SEV,f,19,59.9993368451,Set,2017_04_28_1342,
8,1,,,,,0,9,9,7,,,,,10,0,10,0,,,,,down,0.400238659524,SEV,f,19,59.9993368451,Set,2017_04_28_1342,
8,1,,,,,0,9,9,7,,,,,11,0,11,0,,,,,left,0.666897062998,SEV,f,19,59.9993368451,Set,2017_04_28_1342,
8,1,,,,,0,9,9,7,,,,,12,0,12,0,,,,,down,0.400190501299,SEV,f,19,59.9993368451,Set,2017_04_28_1342,
8,1,,,,,0,9,9,7,,,,,13,0,13,0,,,,,down,0.400236685819,SEV,f,19,59.9993368451,Set,2017_04_28_1342,
8,1,,,,,0,9,9,7,,,,,14,0,14,0,,,,,left,0.483561861212,SEV,f,19,59.9993368451,Set,2017_04_28_1342,
8,1,,,,,0,9,9,7,,,,,15,0,15,0,,,,,left,0.433554676973,SEV,f,19,59.9993368451,Set,2017_04_28_1342,
8,1,,,,,0,9,9,7,,,,,16,0,16,0,,,,,left,0.383578282373,SEV,f,19,59.9993368451,Set,2017_04_28_1342,
8,1,,,,,0,9,9,7,,,,,17,0,17,0,,,,,down,0.56715940687,SEV,f,19,59.9993368451,Set,2017_04_28_1342,
8,1,,,,,0,9,9,7,,,,,18,0,18,0,,,,,down,0.316897694574,SEV,f,19,59.9993368451,Set,2017_04_28_1342,
8,1,,,,,0,9,9,7,,,,,19,0,19,0,,,,,left,0.43356138753,SEV,f,19,59.9993368451,Set,2017_04_28_1342,
8,1,,,,,0,9,9,7,,,,,20,0,20,0,,,,,down,0.466881352331,SEV,f,19,59.9993368451,Set,2017_04_28_1342,
8,1,,,,,0,9,9,7,,,,,21,0,21,0,,,,,down,0.383569992846,SEV,f,19,59.9993368451,Set,2017_04_28_1342,
8,2,,,,,0,10,10,15,,,,,0,0,0,0,,,,,down,0.51687314178,SEV,f,19,59.9993368451,Set,2017_04_28_1342,
8,2,,,,,0,10,10,15,,,,,1,0,1,0,,,,,down,0.366895010346,SEV,f,19,59.9993368451,Set,2017_04_28_1342,
6,1,,,,,0,11,11,5,,,,,0,0,0,0,,,,,down,0.583568729664,SEV,f,19,59.9993368451,Set,2017_04_28_1342,
6,1,,,,,0,11,11,5,,,,,1,0,1,0,,,,,left,0.533906153054,SEV,f,19,59.9993368451,Set,2017_04_28_1342,
6,1,,,,,0,11,11,5,,,,,2,0,2,0,,,,,down,0.566907168308,SEV,f,19,59.9993368451,Set,2017_04_28_1342,
6,1,,,,,0,11,11,5,,,,,3,0,3,0,,,,,down,0.35020029085,SEV,f,19,59.9993368451,Set,2017_04_28_1342,
4,2,,,,,0,12,12,11,,,,,0,0,0,0,,,,,left,0.566900062986,SEV,f,19,59.9993368451,Set,2017_04_28_1342,
4,2,,,,,0,12,12,11,,,,,1,0,1,0,,,,,down,0.466885694477,SEV,f,19,59.9993368451,Set,2017_04_28_1342,
4,2,,,,,0,12,12,11,,,,,2,0,2,0,,,,,down,0.366864220647,SEV,f,19,59.9993368451,Set,2017_04_28_1342,
4,2,,,,,0,12,12,11,,,,,3,0,3,0,,,,,left,0.566890589253,SEV,f,19,59.9993368451,Set,2017_04_28_1342,
4,2,,,,,0,12,12,11,,,,,4,0,4,0,,,,,down,0.250231317361,SEV,f,19,59.9993368451,Set,2017_04_28_1342,
4,2,,,,,0,12,12,11,,,,,5,0,5,0,,,,,down,0.333573071839,SEV,f,19,59.9993368451,Set,2017_04_28_1342,
1,3,,,,,0,13,13,16,,,,,0,0,0,0,,,,,down,0.700219790975,SEV,f,19,59.9993368451,Set,2017_04_28_1342,
1,3,,,,,0,13,13,16,,,,,1,0,1,0,,,,,left,0.666887983971,SEV,f,19,59.9993368451,Set,2017_04_28_1342,
1,3,,,,,0,13,13,16,,,,,2,0,2,0,,,,,left,0.400221685704,SEV,f,19,59.9993368451,Set,2017_04_28_1342,
1,3,,,,,0,13,13,16,,,,,3,0,3,0,,,,,left,0.366946721217,SEV,f,19,59.9993368451,Set,2017_04_28_1342,
1,3,,,,,0,13,13,16,,,,,4,0,4,0,,,,,left,0.350240554282,SEV,f,19,59.9993368451,Set,2017_04_28_1342,
1,3,,,,,0,13,13,16,,,,,5,0,5,0,,,,,down,0.466928721085,SEV,f,19,59.9993368451,Set,2017_04_28_1342,
1,3,,,,,0,13,13,16,,,,,6,0,6,0,,,,,down,0.383633940655,SEV,f,19,59.9993368451,Set,2017_04_28_1342,
1,3,,,,,0,13,13,16,,,,,7,0,7,0,,,,,left,0.516905115684,SEV,f,19,59.9993368451,Set,2017_04_28_1342,
1,3,,,,,0,13,13,16,,,,,8,0,8,0,,,,,down,0.41690101038,SEV,f,19,59.9993368451,Set,2017_04_28_1342,
1,3,,,,,0,13,13,16,,,,,9,0,9,0,,,,,down,0.350226738403,SEV,f,19,59.9993368451,Set,2017_04_28_1342,
1,3,,,,,0,13,13,16,,,,,10,0,10,0,,,,,left,0.46688056289,SEV,f,19,59.9993368451,Set,2017_04_28_1342,
1,3,,,,,0,13,13,16,,,,,11,0,11,0,,,,,down,0.383592492988,SEV,f,19,59.9993368451,Set,2017_04_28_1342,
1,3,,,,,0,13,13,16,,,,,12,0,12,0,,,,,down,0.433564545441,SEV,f,19,59.9993368451,Set,2017_04_28_1342,
8,3,,,,,0,14,14,23,,,,,0,0,0,0,,,,,left,0.966901484062,SEV,f,19,59.9993368451,Set,2017_04_28_1342,
8,3,,,,,0,14,14,23,,,,,1,0,1,0,,,,,down,0.466981221456,SEV,f,19,59.9993368451,Set,2017_04_28_1342,
8,3,,,,,0,14,14,23,,,,,2,0,2,0,,,,,down,0.383580650814,SEV,f,19,59.9993368451,Set,2017_04_28_1342,
4,1,,,,,0,15,15,3,,,,,0,0,0,0,,,,,left,0.533574571833,SEV,f,19,59.9993368451,Set,2017_04_28_1342,
4,1,,,,,0,15,15,3,,,,,1,0,1,0,,,,,left,0.850223975198,SEV,f,19,59.9993368451,Set,2017_04_28_1342,
4,1,,,,,0,15,15,3,,,,,2,0,2,0,,,,,left,0.366997247882,SEV,f,19,59.9993368451,Set,2017_04_28_1342,
4,1,,,,,0,15,15,3,,,,,3,0,3,0,,,,,down,0.433547176886,SEV,f,19,59.9993368451,Set,2017_04_28_1342,
4,1,,,,,0,15,15,3,,,,,4,0,4,0,,,,,left,0.466894773475,SEV,f,19,59.9993368451,Set,2017_04_28_1342,
4,1,,,,,0,15,15,3,,,,,5,0,5,0,,,,,down,0.466728588159,SEV,f,19,59.9993368451,Set,2017_04_28_1342,
4,1,,,,,0,15,15,3,,,,,6,0,6,0,,,,,down,0.400235896348,SEV,f,19,59.9993368451,Set,2017_04_28_1342,
4,1,,,,,0,15,15,3,,,,,7,0,7,0,,,,,left,0.500350528717,SEV,f,19,59.9993368451,Set,2017_04_28_1342,
4,1,,,,,0,15,15,3,,,,,8,0,8,0,,,,,left,0.416996142594,SEV,f,19,59.9993368451,Set,2017_04_28_1342,
4,1,,,,,0,15,15,3,,,,,9,0,9,0,,,,,left,0.500243949034,SEV,f,19,59.9993368451,Set,2017_04_28_1342,
4,1,,,,,0,15,15,3,,,,,10,0,10,0,,,,,down,0.40022523838,SEV,f,19,59.9993368451,Set,2017_04_28_1342,
4,1,,,,,0,15,15,3,,,,,11,0,11,0,,,,,down,0.533562334924,SEV,f,19,59.9993368451,Set,2017_04_28_1342,
6,2,,,,,0,16,16,13,,,,,0,0,0,0,,,,,left,0.550251528039,SEV,f,19,59.9993368451,Set,2017_04_28_1342,
6,2,,,,,0,16,16,13,,,,,1,0,1,0,,,,,down,1.78354891375,SEV,f,19,59.9993368451,Set,2017_04_28_1342,
6,2,,,,,0,16,16,13,,,,,2,0,2,0,,,,,down,3.93352191357,SEV,f,19,59.9993368451,Set,2017_04_28_1342,
6,2,,,,,0,16,16,13,,,,,3,0,3,0,,,,,left,0.416890352411,SEV,f,19,59.9993368451,Set,2017_04_28_1342,
6,2,,,,,0,16,16,13,,,,,4,0,4,0,,,,,down,0.583570703369,SEV,f,19,59.9993368451,Set,2017_04_28_1342,
6,2,,,,,0,16,16,13,,,,,5,0,5,0,,,,,left,0.450232422649,SEV,f,19,59.9993368451,Set,2017_04_28_1342,
6,2,,,,,0,16,16,13,,,,,6,0,6,0,,,,,left,0.383546308469,SEV,f,19,59.9993368451,Set,2017_04_28_1342,
6,2,,,,,0,16,16,13,,,,,7,0,7,0,,,,,left,0.366902905138,SEV,f,19,59.9993368451,Set,2017_04_28_1342,
6,2,,,,,0,16,16,13,,,,,8,0,8,0,,,,,left,0.38356880864,SEV,f,19,59.9993368451,Set,2017_04_28_1342,
6,2,,,,,0,16,16,13,,,,,9,0,9,0,,,,,left,0.333563203312,SEV,f,19,59.9993368451,Set,2017_04_28_1342,
6,2,,,,,0,16,16,13,,,,,10,0,10,0,,,,,left,0.383544334763,SEV,f,19,59.9993368451,Set,2017_04_28_1342,
6,2,,,,,0,16,16,13,,,,,11,0,11,0,,,,,left,0.333617677388,SEV,f,19,59.9993368451,Set,2017_04_28_1342,
6,2,,,,,0,16,16,13,,,,,12,0,12,0,,,,,left,0.416906931467,SEV,f,19,59.9993368451,Set,2017_04_28_1342,
6,2,,,,,0,16,16,13,,,,,13,0,13,0,,,,,left,0.366906457784,SEV,f,19,59.9993368451,Set,2017_04_28_1342,
6,2,,,,,0,16,16,13,,,,,14,0,14,0,,,,,down,0.483556729596,SEV,f,19,59.9993368451,Set,2017_04_28_1342,
6,2,,,,,0,16,16,13,,,,,15,0,15,0,,,,,left,0.416892326088,SEV,f,19,59.9993368451,Set,2017_04_28_1342,
6,2,,,,,0,16,16,13,,,,,16,0,16,0,,,,,left,0.40022523838,SEV,f,19,59.9993368451,Set,2017_04_28_1342,
6,2,,,,,0,16,16,13,,,,,17,0,17,0,,,,,left,0.433565334912,SEV,f,19,59.9993368451,Set,2017_04_28_1342,
6,2,,,,,0,16,16,13,,,,,18,0,18,0,,,,,down,0.500241580594,SEV,f,19,59.9993368451,Set,2017_04_28_1342,
6,2,,,,,0,16,16,13,,,,,19,0,19,0,,,,,left,0.533571019158,SEV,f,19,59.9993368451,Set,2017_04_28_1342,
6,2,,,,,0,16,16,13,,,,,20,0,20,0,,,,,left,0.45023715953,SEV,f,19,59.9993368451,Set,2017_04_28_1342,
6,2,,,,,0,16,16,13,,,,,21,0,21,0,,,,,left,0.550221527839,SEV,f,19,59.9993368451,Set,2017_04_28_1342,
6,2,,,,,0,16,16,13,,,,,22,0,22,0,,,,,down,0.633588940342,SEV,f,19,59.9993368451,Set,2017_04_28_1342,
6,2,,,,,0,16,16,13,,,,,23,0,23,0,,,,,down,0.500238027947,SEV,f,19,59.9993368451,Set,2017_04_28_1342,
6,2,,,,,0,16,16,13,,,,,24,0,24,0,,,,,left,0.516919721034,SEV,f,19,59.9993368451,Set,2017_04_28_1342,
6,2,,,,,0,16,16,13,,,,,25,0,25,0,,,,,left,0.733559098036,SEV,f,19,59.9993368451,Set,2017_04_28_1342,
6,2,,,,,0,16,16,13,,,,,26,0,26,0,,,,,down,0.333569519164,SEV,f,19,59.9993368451,Set,2017_04_28_1342,
6,2,,,,,0,16,16,13,,,,,27,0,27,0,,,,,left,0.450261633378,SEV,f,19,59.9993368451,Set,2017_04_28_1342,
6,2,,,,,0,16,16,13,,,,,28,0,28,0,,,,,down,0.633563677024,SEV,f,19,59.9993368451,Set,2017_04_28_1342,
6,2,,,,,0,16,16,13,,,,,29,0,29,0,,,,,down,0.450245843793,SEV,f,19,59.9993368451,Set,2017_04_28_1342,
5,2,,,,,0,17,17,12,,,,,0,0,0,0,,,,,left,0.500255791238,SEV,f,19,59.9993368451,Set,2017_04_28_1342,
5,2,,,,,0,17,17,12,,,,,1,0,1,0,,,,,left,0.466891615564,SEV,f,19,59.9993368451,Set,2017_04_28_1342,
5,2,,,,,0,17,17,12,,,,,2,0,2,0,,,,,down,0.300230606867,SEV,f,19,59.9993368451,Set,2017_04_28_1342,
5,2,,,,,0,17,17,12,,,,,3,0,3,0,,,,,down,0.450237554236,SEV,f,19,59.9993368451,Set,2017_04_28_1342,
2,2,,,,,0,18,18,9,,,,,0,0,0,0,,,,,down,0.650248133257,SEV,f,19,59.9993368451,Set,2017_04_28_1342,
2,2,,,,,0,18,18,9,,,,,1,0,1,0,,,,,left,0.666931800079,SEV,f,19,59.9993368451,Set,2017_04_28_1342,
2,2,,,,,0,18,18,9,,,,,2,0,2,0,,,,,down,0.633562098054,SEV,f,19,59.9993368451,Set,2017_04_28_1342,
2,2,,,,,0,18,18,9,,,,,3,0,3,0,,,,,down,0.366964879213,SEV,f,19,59.9993368451,Set,2017_04_28_1342,
7,3,,,,,0,19,19,22,,,,,0,0,0,0,,,,,down,0.566906378837,SEV,f,19,59.9993368451,Set,2017_04_28_1342,
7,3,,,,,0,19,19,22,,,,,1,0,1,0,,,,,left,0.566827430914,SEV,f,19,59.9993368451,Set,2017_04_28_1342,
7,3,,,,,0,19,19,22,,,,,2,0,2,0,,,,,left,0.333562808606,SEV,f,19,59.9993368451,Set,2017_04_28_1342,
7,3,,,,,0,19,19,22,,,,,3,0,3,0,,,,,left,0.400208264589,SEV,f,19,59.9993368451,Set,2017_04_28_1342,
7,3,,,,,0,19,19,22,,,,,4,0,4,0,,,,,left,0.650218922558,SEV,f,19,59.9993368451,Set,2017_04_28_1342,
7,3,,,,,0,19,19,22,,,,,5,0,5,0,,,,,left,0.400347212912,SEV,f,19,59.9993368451,Set,2017_04_28_1342,
7,3,,,,,0,19,19,22,,,,,6,0,6,0,,,,,left,0.316900063015,SEV,f,19,59.9993368451,Set,2017_04_28_1342,
7,3,,,,,0,19,19,22,,,,,7,0,7,0,,,,,left,0.333603861509,SEV,f,19,59.9993368451,Set,2017_04_28_1342,
7,3,,,,,0,19,19,22,,,,,8,0,8,0,,,,,left,0.433576387615,SEV,f,19,59.9993368451,Set,2017_04_28_1342,
7,3,,,,,0,19,19,22,,,,,9,0,9,0,,,,,left,0.35026344916,SEV,f,19,59.9993368451,Set,2017_04_28_1342,
7,3,,,,,0,19,19,22,,,,,10,0,10,0,,,,,down,0.516934721149,SEV,f,19,59.9993368451,Set,2017_04_28_1342,
7,3,,,,,0,19,19,22,,,,,11,0,11,0,,,,,down,0.433566124411,SEV,f,19,59.9993368451,Set,2017_04_28_1342,
7,3,,,,,0,19,19,22,,,,,12,0,12,0,,,,,left,0.416904957761,SEV,f,19,59.9993368451,Set,2017_04_28_1342,
7,3,,,,,0,19,19,22,,,,,13,0,13,0,,,,,left,0.433538097888,SEV,f,19,59.9993368451,Set,2017_04_28_1342,
7,3,,,,,0,19,19,22,,,,,14,0,14,0,,,,,down,0.516907878831,SEV,f,19,59.9993368451,Set,2017_04_28_1342,
7,3,,,,,0,19,19,22,,,,,15,0,15,0,,,,,left,0.633713283285,SEV,f,19,59.9993368451,Set,2017_04_28_1342,
7,3,,,,,0,19,19,22,,,,,16,0,16,0,,,,,left,0.416997721564,SEV,f,19,59.9993368451,Set,2017_04_28_1342,
7,3,,,,,0,19,19,22,,,,,17,0,17,0,,,,,left,0.466896352445,SEV,f,19,59.9993368451,Set,2017_04_28_1342,
7,3,,,,,0,19,19,22,,,,,18,0,18,0,,,,,down,0.600222396257,SEV,f,19,59.9993368451,Set,2017_04_28_1342,
7,3,,,,,0,19,19,22,,,,,19,0,19,0,,,,,left,0.450258870202,SEV,f,19,59.9993368451,Set,2017_04_28_1342,
7,3,,,,,0,19,19,22,,,,,20,0,20,0,,,,,left,0.533556808543,SEV,f,19,59.9993368451,Set,2017_04_28_1342,
7,3,,,,,0,19,19,22,,,,,21,0,21,0,,,,,left,0.43339638639,SEV,f,19,59.9993368451,Set,2017_04_28_1342,
7,3,,,,,0,19,19,22,,,,,22,0,22,0,,,,,left,0.366911194666,SEV,f,19,59.9993368451,Set,2017_04_28_1342,
7,3,,,,,0,19,19,22,,,,,23,0,23,0,,,,,left,0.400271817663,SEV,f,19,59.9993368451,Set,2017_04_28_1342,
7,3,,,,,0,19,19,22,,,,,24,0,24,0,,,,,left,0.466907405149,SEV,f,19,59.9993368451,Set,2017_04_28_1342,
7,3,,,,,0,19,19,22,,,,,25,0,25,0,,,,,down,0.566896905075,SEV,f,19,59.9993368451,Set,2017_04_28_1342,
7,3,,,,,0,19,19,22,,,,,26,0,26,0,,,,,left,0.483689362096,SEV,f,19,59.9993368451,Set,2017_04_28_1342,
7,3,,,,,0,19,19,22,,,,,27,0,27,0,,,,,down,0.516901168274,SEV,f,19,59.9993368451,Set,2017_04_28_1342,
7,3,,,,,0,19,19,22,,,,,28,0,28,0,,,,,down,0.450229659473,SEV,f,19,59.9993368451,Set,2017_04_28_1342,
7,1,,,,,0,20,20,6,,,,,0,0,0,0,,,,,down,0.650228791026,SEV,f,19,59.9993368451,Set,2017_04_28_1342,
7,1,,,,,0,20,20,6,,,,,1,0,1,0,,,,,down,0.40035708138,SEV,f,19,59.9993368451,Set,2017_04_28_1342,
3,3,,,,,0,21,21,18,,,,,0,0,0,0,,,,,left,0.650217343587,SEV,f,19,59.9993368451,Set,2017_04_28_1342,
3,3,,,,,0,21,21,18,,,,,1,0,1,0,,,,,down,0.616903299873,SEV,f,19,59.9993368451,Set,2017_04_28_1342,
3,3,,,,,0,21,21,18,,,,,2,0,2,0,,,,,left,0.466882536566,SEV,f,19,59.9993368451,Set,2017_04_28_1342,
3,3,,,,,0,21,21,18,,,,,3,0,3,0,,,,,down,0.41683864154,SEV,f,19,59.9993368451,Set,2017_04_28_1342,
3,3,,,,,0,21,21,18,,,,,4,0,4,0,,,,,down,0.466919642087,SEV,f,19,59.9993368451,Set,2017_04_28_1342,
2,3,,,,,0,22,22,17,,,,,0,0,0,0,,,,,left,0.93339559692,SEV,f,19,59.9993368451,Set,2017_04_28_1342,
2,3,,,,,0,22,22,17,,,,,1,0,1,0,,,,,left,0.433502571337,SEV,f,19,59.9993368451,Set,2017_04_28_1342,
2,3,,,,,0,22,22,17,,,,,2,0,2,0,,,,,left,0.350220817287,SEV,f,19,59.9993368451,Set,2017_04_28_1342,
2,3,,,,,0,22,22,17,,,,,3,0,3,0,,,,,down,0.516892089276,SEV,f,19,59.9993368451,Set,2017_04_28_1342,
2,3,,,,,0,22,22,17,,,,,4,0,4,0,,,,,down,0.600241738517,SEV,f,19,59.9993368451,Set,2017_04_28_1342,
6,3,,,,,0,23,23,21,,,,,0,0,0,0,,,,,left,0.716905431444,SEV,f,19,59.9993368451,Set,2017_04_28_1342,
6,3,,,,,0,23,23,21,,,,,1,0,1,0,,,,,left,0.567310986866,SEV,f,19,59.9993368451,Set,2017_04_28_1342,
6,3,,,,,0,23,23,21,,,,,2,0,2,0,,,,,left,0.466924773704,SEV,f,19,59.9993368451,Set,2017_04_28_1342,
6,3,,,,,0,23,23,21,,,,,3,0,3,0,,,,,left,0.483573703415,SEV,f,19,59.9993368451,Set,2017_04_28_1342,
6,3,,,,,0,23,23,21,,,,,4,0,4,0,,,,,left,0.450227291032,SEV,f,19,59.9993368451,Set,2017_04_28_1342,
6,3,,,,,0,23,23,21,,,,,5,0,5,0,,,,,down,0.816907168308,SEV,f,19,59.9993368451,Set,2017_04_28_1342,
6,3,,,,,0,23,23,21,,,,,6,0,6,0,,,,,down,0.566937563271,SEV,f,19,59.9993368451,Set,2017_04_28_1342,
6,3,,,,,0,23,23,21,,,,,7,0,7,0,,,,,left,0.433570861263,SEV,f,19,59.9993368451,Set,2017_04_28_1342,
6,3,,,,,0,23,23,21,,,,,8,0,8,0,,,,,down,0.450216238329,SEV,f,19,59.9993368451,Set,2017_04_28_1342,
6,3,,,,,0,23,23,21,,,,,9,0,9,0,,,,,left,0.416883641825,SEV,f,19,59.9993368451,Set,2017_04_28_1342,
6,3,,,,,0,23,23,21,,,,,10,0,10,0,,,,,left,0.433563755971,SEV,f,19,59.9993368451,Set,2017_04_28_1342,
6,3,,,,,0,23,23,21,,,,,11,0,11,0,,,,,left,0.46673253554,SEV,f,19,59.9993368451,Set,2017_04_28_1342,
6,3,,,,,0,23,23,21,,,,,12,0,12,0,,,,,down,0.466896747181,SEV,f,19,59.9993368451,Set,2017_04_28_1342,
6,3,,,,,0,23,23,21,,,,,13,0,13,0,,,,,down,0.450238343736,SEV,f,19,59.9993368451,Set,2017_04_28_1342,
