number_of_fixational_trials,size,trials_2.thisRepN,trials_2.thisTrialN,trials_2.thisN,trials_2.thisIndex,trials.thisRepN,trials.thisTrialN,trials.thisN,trials.thisIndex,trials_3.thisRepN,trials_3.thisTrialN,trials_3.thisN,trials_3.thisIndex,answer.keys,answer.rt,participant,gender,age,frameRate,expName,date,
9,"[2.6, 2.6]",0,0,0,8,,,,,0,0,0,0,left,1.00880030948,as,m,26,59.9829521239,Set,2017_03_17_1604,
9,"[2.6, 2.6]",0,0,0,8,,,,,1,0,1,0,down,2.15006750036,as,m,26,59.9829521239,Set,2017_03_17_1604,
9,"[2.6, 2.6]",0,0,0,8,,,,,2,0,2,0,right,1.25024829078,as,m,26,59.9829521239,Set,2017_03_17_1604,
9,"[2.6, 2.6]",0,0,0,8,,,,,3,0,3,0,right,0.792174300917,as,m,26,59.9829521239,Set,2017_03_17_1604,
9,"[2.6, 2.6]",0,0,0,8,,,,,4,0,4,0,right,0.50878017779,as,m,26,59.9829521239,Set,2017_03_17_1604,
9,"[2.6, 2.6]",0,0,0,8,,,,,5,0,5,0,down,0.583518860626,as,m,26,59.9829521239,Set,2017_03_17_1604,
9,"[2.6, 2.6]",0,0,0,8,,,,,6,0,6,0,down,0.575488292044,as,m,26,59.9829521239,Set,2017_03_17_1604,
9,"[2.6, 2.6]",0,0,0,8,,,,,7,0,7,0,left,0.775447239196,as,m,26,59.9829521239,Set,2017_03_17_1604,
9,"[2.6, 2.6]",0,0,0,8,,,,,8,0,8,0,right,0.708792414697,as,m,26,59.9829521239,Set,2017_03_17_1604,
9,"[2.6, 2.6]",0,0,0,8,,,,,9,0,9,0,left,0.958812941121,as,m,26,59.9829521239,Set,2017_03_17_1604,
9,"[2.6, 2.6]",0,0,0,8,,,,,10,0,10,0,right,0.458807414776,as,m,26,59.9829521239,Set,2017_03_17_1604,
9,"[2.6, 2.6]",0,0,0,8,,,,,11,0,11,0,right,0.425454739235,as,m,26,59.9829521239,Set,2017_03_17_1604,
9,"[2.6, 2.6]",0,0,0,8,,,,,12,0,12,0,right,0.375480397265,as,m,26,59.9829521239,Set,2017_03_17_1604,
9,"[2.6, 2.6]",0,0,0,8,,,,,13,0,13,0,right,0.383565045079,as,m,26,59.9829521239,Set,2017_03_17_1604,
9,"[2.6, 2.6]",0,0,0,8,,,,,14,0,14,0,down,0.325279475155,as,m,26,59.9829521239,Set,2017_03_17_1604,
9,"[2.6, 2.6]",0,0,0,8,,,,,15,0,15,0,down,0.275434212812,as,m,26,59.9829521239,Set,2017_03_17_1604,
9,"[2.67, 2.67]",0,1,1,38,,,,,0,0,0,0,right,0.958822809594,as,m,26,59.9829521239,Set,2017_03_17_1604,
9,"[2.67, 2.67]",0,1,1,38,,,,,1,0,1,0,left,1.05875136185,as,m,26,59.9829521239,Set,2017_03_17_1604,
9,"[2.67, 2.67]",0,1,1,38,,,,,2,0,2,0,right,0.475446449718,as,m,26,59.9829521239,Set,2017_03_17_1604,
9,"[2.67, 2.67]",0,1,1,38,,,,,3,0,3,0,left,0.692126932247,as,m,26,59.9829521239,Set,2017_03_17_1604,
9,"[2.67, 2.67]",0,1,1,38,,,,,4,0,4,0,right,0.408735967031,as,m,26,59.9829521239,Set,2017_03_17_1604,
9,"[2.67, 2.67]",0,1,1,38,,,,,5,0,5,0,left,0.558821625377,as,m,26,59.9829521239,Set,2017_03_17_1604,
9,"[2.67, 2.67]",0,1,1,38,,,,,6,0,6,0,left,0.408816099032,as,m,26,59.9829521239,Set,2017_03_17_1604,
9,"[2.67, 2.67]",0,1,1,38,,,,,7,0,7,0,left,0.408795967347,as,m,26,59.9829521239,Set,2017_03_17_1604,
9,"[2.67, 2.67]",0,1,1,38,,,,,8,0,8,0,right,0.325447239196,as,m,26,59.9829521239,Set,2017_03_17_1604,
9,"[2.67, 2.67]",0,1,1,38,,,,,9,0,9,0,left,0.375476844615,as,m,26,59.9829521239,Set,2017_03_17_1604,
9,"[2.67, 2.67]",0,1,1,38,,,,,10,0,10,0,right,0.308788862047,as,m,26,59.9829521239,Set,2017_03_17_1604,
9,"[2.67, 2.67]",0,1,1,38,,,,,11,0,11,0,left,0.342148642888,as,m,26,59.9829521239,Set,2017_03_17_1604,
9,"[2.67, 2.67]",0,1,1,38,,,,,12,0,12,0,left,0.358805046342,as,m,26,59.9829521239,Set,2017_03_17_1604,
9,"[2.67, 2.67]",0,1,1,38,,,,,13,0,13,0,left,0.325410133738,as,m,26,59.9829521239,Set,2017_03_17_1604,
9,"[2.67, 2.67]",0,1,1,38,,,,,14,0,14,0,left,0.425431449639,as,m,26,59.9829521239,Set,2017_03_17_1604,
9,"[2.67, 2.67]",0,1,1,38,,,,,15,0,15,0,right,0.350254211864,as,m,26,59.9829521239,Set,2017_03_17_1604,
9,"[2.67, 2.67]",0,1,1,38,,,,,16,0,16,0,down,0.275446449718,as,m,26,59.9829521239,Set,2017_03_17_1604,
9,"[2.67, 2.67]",0,1,1,38,,,,,17,0,17,0,left,0.358775835662,as,m,26,59.9829521239,Set,2017_03_17_1604,
9,"[2.67, 2.67]",0,1,1,38,,,,,18,0,18,0,left,0.275462239275,as,m,26,59.9829521239,Set,2017_03_17_1604,
9,"[2.67, 2.67]",0,1,1,38,,,,,19,0,19,0,left,0.325453949758,as,m,26,59.9829521239,Set,2017_03_17_1604,
9,"[2.67, 2.67]",0,1,1,38,,,,,20,0,20,0,down,0.39211864273,as,m,26,59.9829521239,Set,2017_03_17_1604,
9,"[2.67, 2.67]",0,1,1,38,,,,,21,0,21,0,left,0.342126142769,as,m,26,59.9829521239,Set,2017_03_17_1604,
9,"[2.67, 2.67]",0,1,1,38,,,,,22,0,22,0,left,0.308777809357,as,m,26,59.9829521239,Set,2017_03_17_1604,
9,"[2.67, 2.67]",0,1,1,38,,,,,23,0,23,0,left,0.600246711825,as,m,26,59.9829521239,Set,2017_03_17_1604,
9,"[2.67, 2.67]",0,1,1,38,,,,,24,0,24,0,down,0.342229169627,as,m,26,59.9829521239,Set,2017_03_17_1604,
9,"[2.67, 2.67]",0,1,1,38,,,,,25,0,25,0,left,0.592122590119,as,m,26,59.9829521239,Set,2017_03_17_1604,
9,"[2.67, 2.67]",0,1,1,38,,,,,26,0,26,0,down,0.358792414697,as,m,26,59.9829521239,Set,2017_03_17_1604,
9,"[2.67, 2.67]",0,1,1,38,,,,,27,0,27,0,left,0.442104826867,as,m,26,59.9829521239,Set,2017_03_17_1604,
9,"[2.67, 2.67]",0,1,1,38,,,,,28,0,28,0,left,0.375442502329,as,m,26,59.9829521239,Set,2017_03_17_1604,
9,"[2.67, 2.67]",0,1,1,38,,,,,29,0,29,0,left,0.292377196722,as,m,26,59.9829521239,Set,2017_03_17_1604,
9,"[2.67, 2.67]",0,1,1,38,,,,,30,0,30,0,left,0.333567413513,as,m,26,59.9829521239,Set,2017_03_17_1604,
9,"[2.67, 2.67]",0,1,1,38,,,,,31,0,31,0,left,0.325459476103,as,m,26,59.9829521239,Set,2017_03_17_1604,
9,"[2.67, 2.67]",0,1,1,38,,,,,32,0,32,0,left,0.275463423492,as,m,26,59.9829521239,Set,2017_03_17_1604,
9,"[2.67, 2.67]",0,1,1,38,,,,,33,0,33,0,left,0.242113905863,as,m,26,59.9829521239,Set,2017_03_17_1604,
9,"[2.67, 2.67]",0,1,1,38,,,,,34,0,34,0,left,0.242111932168,as,m,26,59.9829521239,Set,2017_03_17_1604,
9,"[2.67, 2.67]",0,1,1,38,,,,,35,0,35,0,left,0.258780967268,as,m,26,59.9829521239,Set,2017_03_17_1604,
9,"[2.67, 2.67]",0,1,1,38,,,,,36,0,36,0,left,0.216914167969,as,m,26,59.9829521239,Set,2017_03_17_1604,
9,"[2.67, 2.67]",0,1,1,38,,,,,37,0,37,0,left,0.258781362007,as,m,26,59.9829521239,Set,2017_03_17_1604,
9,"[2.67, 2.67]",0,1,1,38,,,,,38,0,38,0,left,0.242137984937,as,m,26,59.9829521239,Set,2017_03_17_1604,
9,"[2.67, 2.67]",0,1,1,38,,,,,39,0,39,0,left,0.233398859994,as,m,26,59.9829521239,Set,2017_03_17_1604,
9,"[2.67, 2.67]",0,1,1,38,,,,,40,0,40,0,down,0.300253422387,as,m,26,59.9829521239,Set,2017_03_17_1604,
9,"[2.67, 2.67]",0,1,1,38,,,,,41,0,41,0,down,0.216893246807,as,m,26,59.9829521239,Set,2017_03_17_1604,
9,"[2.7, 2.7]",0,2,2,18,,,,,0,0,0,0,down,1.50873044069,as,m,26,59.9829521239,Set,2017_03_17_1604,
9,"[2.7, 2.7]",0,2,2,18,,,,,1,0,1,0,down,0.675433028595,as,m,26,59.9829521239,Set,2017_03_17_1604,
1,"[2.7, 2.7]",0,3,3,10,,,,,0,0,0,0,right,1.63351649219,as,m,26,59.9829521239,Set,2017_03_17_1604,
1,"[2.7, 2.7]",0,3,3,10,,,,,1,0,1,0,left,1.14215219554,as,m,26,59.9829521239,Set,2017_03_17_1604,
1,"[2.7, 2.7]",0,3,3,10,,,,,2,0,2,0,down,0.725443291807,as,m,26,59.9829521239,Set,2017_03_17_1604,
1,"[2.7, 2.7]",0,3,3,10,,,,,3,0,3,0,down,0.525508818468,as,m,26,59.9829521239,Set,2017_03_17_1604,
1,"[2.7, 2.7]",0,3,3,10,,,,,4,0,4,0,left,0.508793993653,as,m,26,59.9829521239,Set,2017_03_17_1604,
1,"[2.7, 2.7]",0,3,3,10,,,,,5,0,5,0,left,0.50878767783,as,m,26,59.9829521239,Set,2017_03_17_1604,
1,"[2.7, 2.7]",0,3,3,10,,,,,6,0,6,0,left,0.425442502329,as,m,26,59.9829521239,Set,2017_03_17_1604,
1,"[2.7, 2.7]",0,3,3,10,,,,,7,0,7,0,left,0.275460660319,as,m,26,59.9829521239,Set,2017_03_17_1604,
1,"[2.7, 2.7]",0,3,3,10,,,,,8,0,8,0,left,0.208811756904,as,m,26,59.9829521239,Set,2017_03_17_1604,
1,"[2.7, 2.7]",0,3,3,10,,,,,9,0,9,0,left,0.175462634014,as,m,26,59.9829521239,Set,2017_03_17_1604,
1,"[2.7, 2.7]",0,3,3,10,,,,,10,0,10,0,left,0.142120221685,as,m,26,59.9829521239,Set,2017_03_17_1604,
1,"[2.7, 2.7]",0,3,3,10,,,,,11,0,11,0,left,0.100239606524,as,m,26,59.9829521239,Set,2017_03_17_1604,
1,"[2.7, 2.7]",0,3,3,10,,,,,12,0,12,0,left,0.125462239275,as,m,26,59.9829521239,Set,2017_03_17_1604,
1,"[2.7, 2.7]",0,3,3,10,,,,,13,0,13,0,left,0.142128511203,as,m,26,59.9829521239,Set,2017_03_17_1604,
1,"[2.7, 2.7]",0,3,3,10,,,,,14,0,14,0,left,0.158777414618,as,m,26,59.9829521239,Set,2017_03_17_1604,
1,"[2.7, 2.7]",0,3,3,10,,,,,15,0,15,0,left,0.192137590198,as,m,26,59.9829521239,Set,2017_03_17_1604,
1,"[2.7, 2.7]",0,3,3,10,,,,,16,0,16,0,left,0.225532108064,as,m,26,59.9829521239,Set,2017_03_17_1604,
1,"[2.7, 2.7]",0,3,3,10,,,,,17,0,17,0,left,0.225451581324,as,m,26,59.9829521239,Set,2017_03_17_1604,
1,"[2.7, 2.7]",0,3,3,10,,,,,18,0,18,0,left,0.192130484897,as,m,26,59.9829521239,Set,2017_03_17_1604,
1,"[2.7, 2.7]",0,3,3,10,,,,,19,0,19,0,left,0.225449212891,as,m,26,59.9829521239,Set,2017_03_17_1604,
1,"[2.7, 2.7]",0,3,3,10,,,,,20,0,20,0,left,0.18356109769,as,m,26,59.9829521239,Set,2017_03_17_1604,
1,"[2.7, 2.7]",0,3,3,10,,,,,21,0,21,0,left,0.275493028911,as,m,26,59.9829521239,Set,2017_03_17_1604,
1,"[2.7, 2.7]",0,3,3,10,,,,,22,0,22,0,left,0.23350978163,as,m,26,59.9829521239,Set,2017_03_17_1604,
1,"[2.7, 2.7]",0,3,3,10,,,,,23,0,23,0,left,0.292110747951,as,m,26,59.9829521239,Set,2017_03_17_1604,
1,"[2.7, 2.7]",0,3,3,10,,,,,24,0,24,0,left,0.225444870763,as,m,26,59.9829521239,Set,2017_03_17_1604,
1,"[2.7, 2.7]",0,3,3,10,,,,,25,0,25,0,left,0.258787283091,as,m,26,59.9829521239,Set,2017_03_17_1604,
1,"[2.7, 2.7]",0,3,3,10,,,,,26,0,26,0,down,0.74210403739,as,m,26,59.9829521239,Set,2017_03_17_1604,
1,"[2.7, 2.7]",0,3,3,10,,,,,27,0,27,0,down,0.45881333586,as,m,26,59.9829521239,Set,2017_03_17_1604,
6,"[2.63, 2.63]",0,4,4,25,,,,,0,0,0,0,left,1.27540658109,as,m,26,59.9829521239,Set,2017_03_17_1604,
6,"[2.63, 2.63]",0,4,4,25,,,,,1,0,1,0,right,1.19212653751,as,m,26,59.9829521239,Set,2017_03_17_1604,
6,"[2.63, 2.63]",0,4,4,25,,,,,2,0,2,0,right,1.02543618651,as,m,26,59.9829521239,Set,2017_03_17_1604,
6,"[2.63, 2.63]",0,4,4,25,,,,,3,0,3,0,left,0.808795967347,as,m,26,59.9829521239,Set,2017_03_17_1604,
6,"[2.63, 2.63]",0,4,4,25,,,,,4,0,4,0,left,0.475466976142,as,m,26,59.9829521239,Set,2017_03_17_1604,
6,"[2.63, 2.63]",0,4,4,25,,,,,5,0,5,0,left,0.675441318112,as,m,26,59.9829521239,Set,2017_03_17_1604,
6,"[2.63, 2.63]",0,4,4,25,,,,,6,0,6,0,left,0.442100090001,as,m,26,59.9829521239,Set,2017_03_17_1604,
6,"[2.63, 2.63]",0,4,4,25,,,,,7,0,7,0,left,0.566894431023,as,m,26,59.9829521239,Set,2017_03_17_1604,
6,"[2.63, 2.63]",0,4,4,25,,,,,8,0,8,0,left,0.34208943205,as,m,26,59.9829521239,Set,2017_03_17_1604,
6,"[2.63, 2.63]",0,4,4,25,,,,,9,0,9,0,left,0.32548592361,as,m,26,59.9829521239,Set,2017_03_17_1604,
6,"[2.63, 2.63]",0,4,4,25,,,,,10,0,10,0,right,0.358864651919,as,m,26,59.9829521239,Set,2017_03_17_1604,
6,"[2.63, 2.63]",0,4,4,25,,,,,11,0,11,0,left,0.342122984858,as,m,26,59.9829521239,Set,2017_03_17_1604,
6,"[2.63, 2.63]",0,4,4,25,,,,,12,0,12,0,left,0.342092589961,as,m,26,59.9829521239,Set,2017_03_17_1604,
6,"[2.63, 2.63]",0,4,4,25,,,,,13,0,13,0,right,0.425432633856,as,m,26,59.9829521239,Set,2017_03_17_1604,
6,"[2.63, 2.63]",0,4,4,25,,,,,14,0,14,0,left,0.342127721725,as,m,26,59.9829521239,Set,2017_03_17_1604,
6,"[2.63, 2.63]",0,4,4,25,,,,,15,0,15,0,down,0.525472897226,as,m,26,59.9829521239,Set,2017_03_17_1604,
6,"[2.63, 2.63]",0,4,4,25,,,,,16,0,16,0,down,0.325467370881,as,m,26,59.9829521239,Set,2017_03_17_1604,
7,"[2.63, 2.63]",0,5,5,26,,,,,0,0,0,0,left,0.866912983753,as,m,26,59.9829521239,Set,2017_03_17_1604,
7,"[2.63, 2.63]",0,5,5,26,,,,,1,0,1,0,right,0.808815704293,as,m,26,59.9829521239,Set,2017_03_17_1604,
7,"[2.63, 2.63]",0,5,5,26,,,,,2,0,2,0,right,0.625439739156,as,m,26,59.9829521239,Set,2017_03_17_1604,
7,"[2.63, 2.63]",0,5,5,26,,,,,3,0,3,0,left,0.425479213048,as,m,26,59.9829521239,Set,2017_03_17_1604,
7,"[2.63, 2.63]",0,5,5,26,,,,,4,0,4,0,left,0.392122590119,as,m,26,59.9829521239,Set,2017_03_17_1604,
7,"[2.63, 2.63]",0,5,5,26,,,,,5,0,5,0,right,0.342155353449,as,m,26,59.9829521239,Set,2017_03_17_1604,
7,"[2.63, 2.63]",0,5,5,26,,,,,6,0,6,0,left,0.308814125337,as,m,26,59.9829521239,Set,2017_03_17_1604,
7,"[2.63, 2.63]",0,5,5,26,,,,,7,0,7,0,right,0.275459476102,as,m,26,59.9829521239,Set,2017_03_17_1604,
7,"[2.63, 2.63]",0,5,5,26,,,,,8,0,8,0,left,0.292767593514,as,m,26,59.9829521239,Set,2017_03_17_1604,
7,"[2.63, 2.63]",0,5,5,26,,,,,9,0,9,0,left,0.292137195459,as,m,26,59.9829521239,Set,2017_03_17_1604,
7,"[2.63, 2.63]",0,5,5,26,,,,,10,0,10,0,left,0.275486318349,as,m,26,59.9829521239,Set,2017_03_17_1604,
7,"[2.63, 2.63]",0,5,5,26,,,,,11,0,11,0,down,0.250260132948,as,m,26,59.9829521239,Set,2017_03_17_1604,
7,"[2.63, 2.63]",0,5,5,26,,,,,12,0,12,0,down,0.158827151722,as,m,26,59.9829521239,Set,2017_03_17_1604,
2,"[2.63, 2.63]",0,6,6,21,,,,,0,0,0,0,left,0.975455133974,as,m,26,59.9829521239,Set,2017_03_17_1604,
2,"[2.63, 2.63]",0,6,6,21,,,,,1,0,1,0,left,0.375449212891,as,m,26,59.9829521239,Set,2017_03_17_1604,
2,"[2.63, 2.63]",0,6,6,21,,,,,2,0,2,0,left,0.308787283091,as,m,26,59.9829521239,Set,2017_03_17_1604,
2,"[2.63, 2.63]",0,6,6,21,,,,,3,0,3,0,left,0.258752151327,as,m,26,59.9829521239,Set,2017_03_17_1604,
2,"[2.63, 2.63]",0,6,6,21,,,,,4,0,4,0,left,0.408785704135,as,m,26,59.9829521239,Set,2017_03_17_1604,
2,"[2.63, 2.63]",0,6,6,21,,,,,5,0,5,0,left,0.275465791925,as,m,26,59.9829521239,Set,2017_03_17_1604,
2,"[2.63, 2.63]",0,6,6,21,,,,,6,0,6,0,down,0.208788072569,as,m,26,59.9829521239,Set,2017_03_17_1604,
2,"[2.63, 2.63]",0,6,6,21,,,,,7,0,7,0,down,0.116909431102,as,m,26,59.9829521239,Set,2017_03_17_1604,
10,"[2.67, 2.67]",0,7,7,39,,,,,0,0,0,0,right,0.825444870763,as,m,26,59.9829521239,Set,2017_03_17_1604,
10,"[2.67, 2.67]",0,7,7,39,,,,,1,0,1,0,left,3.32542789699,as,m,26,59.9829521239,Set,2017_03_17_1604,
10,"[2.67, 2.67]",0,7,7,39,,,,,2,0,2,0,left,0.97546026558,as,m,26,59.9829521239,Set,2017_03_17_1604,
10,"[2.67, 2.67]",0,7,7,39,,,,,3,0,3,0,left,0.37544566024,as,m,26,59.9829521239,Set,2017_03_17_1604,
10,"[2.67, 2.67]",0,7,7,39,,,,,4,0,4,0,left,0.37546421297,as,m,26,59.9829521239,Set,2017_03_17_1604,
10,"[2.67, 2.67]",0,7,7,39,,,,,5,0,5,0,left,0.308848072885,as,m,26,59.9829521239,Set,2017_03_17_1604,
10,"[2.67, 2.67]",0,7,7,39,,,,,6,0,6,0,left,0.358779388313,as,m,26,59.9829521239,Set,2017_03_17_1604,
10,"[2.67, 2.67]",0,7,7,39,,,,,7,0,7,0,left,0.275498949994,as,m,26,59.9829521239,Set,2017_03_17_1604,
10,"[2.67, 2.67]",0,7,7,39,,,,,8,0,8,0,left,0.275487897305,as,m,26,59.9829521239,Set,2017_03_17_1604,
10,"[2.67, 2.67]",0,7,7,39,,,,,9,0,9,0,left,0.242128511203,as,m,26,59.9829521239,Set,2017_03_17_1604,
10,"[2.67, 2.67]",0,7,7,39,,,,,10,0,10,0,left,0.258816493771,as,m,26,59.9829521239,Set,2017_03_17_1604,
10,"[2.67, 2.67]",0,7,7,39,,,,,11,0,11,0,left,0.242123379597,as,m,26,59.9829521239,Set,2017_03_17_1604,
10,"[2.67, 2.67]",0,7,7,39,,,,,12,0,12,0,left,0.192127721725,as,m,26,59.9829521239,Set,2017_03_17_1604,
10,"[2.67, 2.67]",0,7,7,39,,,,,13,0,13,0,left,0.258797151564,as,m,26,59.9829521239,Set,2017_03_17_1604,
10,"[2.67, 2.67]",0,7,7,39,,,,,14,0,14,0,left,0.175452765541,as,m,26,59.9829521239,Set,2017_03_17_1604,
10,"[2.67, 2.67]",0,7,7,39,,,,,15,0,15,0,left,0.208784519918,as,m,26,59.9829521239,Set,2017_03_17_1604,
10,"[2.67, 2.67]",0,7,7,39,,,,,16,0,16,0,left,0.208779388313,as,m,26,59.9829521239,Set,2017_03_17_1604,
10,"[2.67, 2.67]",0,7,7,39,,,,,17,0,17,0,left,0.208798335781,as,m,26,59.9829521239,Set,2017_03_17_1604,
10,"[2.67, 2.67]",0,7,7,39,,,,,18,0,18,0,left,0.175460660319,as,m,26,59.9829521239,Set,2017_03_17_1604,
10,"[2.67, 2.67]",0,7,7,39,,,,,19,0,19,0,left,0.175454344497,as,m,26,59.9829521239,Set,2017_03_17_1604,
10,"[2.67, 2.67]",0,7,7,39,,,,,20,0,20,0,left,0.192209037942,as,m,26,59.9829521239,Set,2017_03_17_1604,
10,"[2.67, 2.67]",0,7,7,39,,,,,21,0,21,0,left,0.542106405823,as,m,26,59.9829521239,Set,2017_03_17_1604,
10,"[2.67, 2.67]",0,7,7,39,,,,,22,0,22,0,left,0.408776230401,as,m,26,59.9829521239,Set,2017_03_17_1604,
10,"[2.67, 2.67]",0,7,7,39,,,,,23,0,23,0,left,0.575511976379,as,m,26,59.9829521239,Set,2017_03_17_1604,
10,"[2.67, 2.67]",0,7,7,39,,,,,24,0,24,0,left,0.29210759004,as,m,26,59.9829521239,Set,2017_03_17_1604,
10,"[2.67, 2.67]",0,7,7,39,,,,,25,0,25,0,left,0.375448423413,as,m,26,59.9829521239,Set,2017_03_17_1604,
10,"[2.67, 2.67]",0,7,7,39,,,,,26,0,26,0,down,0.392139169154,as,m,26,59.9829521239,Set,2017_03_17_1604,
10,"[2.67, 2.67]",0,7,7,39,,,,,27,0,27,0,down,0.50877307249,as,m,26,59.9829521239,Set,2017_03_17_1604,
10,"[2.67, 2.67]",0,7,7,39,,,,,28,0,28,0,left,0.592109563735,as,m,26,59.9829521239,Set,2017_03_17_1604,
10,"[2.67, 2.67]",0,7,7,39,,,,,29,0,29,0,left,0.233552018695,as,m,26,59.9829521239,Set,2017_03_17_1604,
10,"[2.67, 2.67]",0,7,7,39,,,,,30,0,30,0,left,0.242118247991,as,m,26,59.9829521239,Set,2017_03_17_1604,
10,"[2.67, 2.67]",0,7,7,39,,,,,31,0,31,0,left,0.192128905942,as,m,26,59.9829521239,Set,2017_03_17_1604,
10,"[2.67, 2.67]",0,7,7,39,,,,,32,0,32,0,left,0.25881333586,as,m,26,59.9829521239,Set,2017_03_17_1604,
10,"[2.67, 2.67]",0,7,7,39,,,,,33,0,33,0,left,0.26690666793,as,m,26,59.9829521239,Set,2017_03_17_1604,
10,"[2.67, 2.67]",0,7,7,39,,,,,34,0,34,0,down,0.375482765699,as,m,26,59.9829521239,Set,2017_03_17_1604,
10,"[2.67, 2.67]",0,7,7,39,,,,,35,0,35,0,down,0.742010089527,as,m,26,59.9829521239,Set,2017_03_17_1604,
3,"[2.67, 2.67]",0,8,8,32,,,,,0,0,0,0,right,0.975461844536,as,m,26,59.9829521239,Set,2017_03_17_1604,
3,"[2.67, 2.67]",0,8,8,32,,,,,1,0,1,0,right,1.29211074795,as,m,26,59.9829521239,Set,2017_03_17_1604,
3,"[2.67, 2.67]",0,8,8,32,,,,,2,0,2,0,down,0.5921660114,as,m,26,59.9829521239,Set,2017_03_17_1604,
3,"[2.67, 2.67]",0,8,8,32,,,,,3,0,3,0,down,0.392111932168,as,m,26,59.9829521239,Set,2017_03_17_1604,
5,"[2.63, 2.63]",0,9,9,24,,,,,0,0,0,0,left,0.850250264475,as,m,26,59.9829521239,Set,2017_03_17_1604,
5,"[2.63, 2.63]",0,9,9,24,,,,,1,0,1,0,left,0.575468555098,as,m,26,59.9829521239,Set,2017_03_17_1604,
5,"[2.63, 2.63]",0,9,9,24,,,,,2,0,2,0,left,0.358801098953,as,m,26,59.9829521239,Set,2017_03_17_1604,
5,"[2.63, 2.63]",0,9,9,24,,,,,3,0,3,0,left,0.775457502408,as,m,26,59.9829521239,Set,2017_03_17_1604,
5,"[2.63, 2.63]",0,9,9,24,,,,,4,0,4,0,down,0.425456318191,as,m,26,59.9829521239,Set,2017_03_17_1604,
5,"[2.63, 2.63]",0,9,9,24,,,,,5,0,5,0,down,0.475645792873,as,m,26,59.9829521239,Set,2017_03_17_1604,
7,"[2.6, 2.6]",0,10,10,6,,,,,0,0,0,0,left,0.842109958473,as,m,26,59.9829521239,Set,2017_03_17_1604,
7,"[2.6, 2.6]",0,10,10,6,,,,,1,0,1,0,left,0.375453949757,as,m,26,59.9829521239,Set,2017_03_17_1604,
7,"[2.6, 2.6]",0,10,10,6,,,,,2,0,2,0,left,0.342165616661,as,m,26,59.9829521239,Set,2017_03_17_1604,
7,"[2.6, 2.6]",0,10,10,6,,,,,3,0,3,0,left,0.342289564682,as,m,26,59.9829521239,Set,2017_03_17_1604,
7,"[2.6, 2.6]",0,10,10,6,,,,,4,0,4,0,left,0.292129695419,as,m,26,59.9829521239,Set,2017_03_17_1604,
7,"[2.6, 2.6]",0,10,10,6,,,,,5,0,5,0,left,0.291961931379,as,m,26,59.9829521239,Set,2017_03_17_1604,
7,"[2.6, 2.6]",0,10,10,6,,,,,6,0,6,0,left,0.275433028595,as,m,26,59.9829521239,Set,2017_03_17_1604,
7,"[2.6, 2.6]",0,10,10,6,,,,,7,0,7,0,left,0.275454739236,as,m,26,59.9829521239,Set,2017_03_17_1604,
7,"[2.6, 2.6]",0,10,10,6,,,,,8,0,8,0,right,0.292161274533,as,m,26,59.9829521239,Set,2017_03_17_1604,
7,"[2.6, 2.6]",0,10,10,6,,,,,9,0,9,0,left,0.242109168996,as,m,26,59.9829521239,Set,2017_03_17_1604,
7,"[2.6, 2.6]",0,10,10,6,,,,,10,0,10,0,left,0.225440133895,as,m,26,59.9829521239,Set,2017_03_17_1604,
7,"[2.6, 2.6]",0,10,10,6,,,,,11,0,11,0,left,0.308821230638,as,m,26,59.9829521239,Set,2017_03_17_1604,
7,"[2.6, 2.6]",0,10,10,6,,,,,12,0,12,0,left,0.275465002447,as,m,26,59.9829521239,Set,2017_03_17_1604,
7,"[2.6, 2.6]",0,10,10,6,,,,,13,0,13,0,left,0.208764782973,as,m,26,59.9829521239,Set,2017_03_17_1604,
7,"[2.6, 2.6]",0,10,10,6,,,,,14,0,14,0,left,0.258867809831,as,m,26,59.9829521239,Set,2017_03_17_1604,
7,"[2.6, 2.6]",0,10,10,6,,,,,15,0,15,0,right,0.308782546224,as,m,26,59.9829521239,Set,2017_03_17_1604,
7,"[2.6, 2.6]",0,10,10,6,,,,,16,0,16,0,left,0.275406581087,as,m,26,59.9829521239,Set,2017_03_17_1604,
7,"[2.6, 2.6]",0,10,10,6,,,,,17,0,17,0,left,0.225476055137,as,m,26,59.9829521239,Set,2017_03_17_1604,
7,"[2.6, 2.6]",0,10,10,6,,,,,18,0,18,0,left,0.292197985252,as,m,26,59.9829521239,Set,2017_03_17_1604,
7,"[2.6, 2.6]",0,10,10,6,,,,,19,0,19,0,left,0.392139563892,as,m,26,59.9829521239,Set,2017_03_17_1604,
7,"[2.6, 2.6]",0,10,10,6,,,,,20,0,20,0,down,0.358785309396,as,m,26,59.9829521239,Set,2017_03_17_1604,
7,"[2.6, 2.6]",0,10,10,6,,,,,21,0,21,0,left,0.575455528713,as,m,26,59.9829521239,Set,2017_03_17_1604,
7,"[2.6, 2.6]",0,10,10,6,,,,,22,0,22,0,left,0.608795177869,as,m,26,59.9829521239,Set,2017_03_17_1604,
7,"[2.6, 2.6]",0,10,10,6,,,,,23,0,23,0,down,0.392244169706,as,m,26,59.9829521239,Set,2017_03_17_1604,
7,"[2.6, 2.6]",0,10,10,6,,,,,24,0,24,0,down,0.242091800483,as,m,26,59.9829521239,Set,2017_03_17_1604,
4,"[2.7, 2.7]",0,11,11,13,,,,,0,0,0,0,right,1.84208548466,as,m,26,59.9829521239,Set,2017_03_17_1604,
4,"[2.7, 2.7]",0,11,11,13,,,,,1,0,1,0,down,0.658778204096,as,m,26,59.9829521239,Set,2017_03_17_1604,
4,"[2.7, 2.7]",0,11,11,13,,,,,2,0,2,0,right,0.52545316028,as,m,26,59.9829521239,Set,2017_03_17_1604,
4,"[2.7, 2.7]",0,11,11,13,,,,,3,0,3,0,left,0.658783335702,as,m,26,59.9829521239,Set,2017_03_17_1604,
4,"[2.7, 2.7]",0,11,11,13,,,,,4,0,4,0,down,0.375439739156,as,m,26,59.9829521239,Set,2017_03_17_1604,
4,"[2.7, 2.7]",0,11,11,13,,,,,5,0,5,0,down,0.442105221606,as,m,26,59.9829521239,Set,2017_03_17_1604,
5,"[2.67, 2.67]",0,12,12,34,,,,,0,0,0,0,right,1.24211232691,as,m,26,59.9829521239,Set,2017_03_17_1604,
5,"[2.67, 2.67]",0,12,12,34,,,,,1,0,1,0,right,0.442128905941,as,m,26,59.9829521239,Set,2017_03_17_1604,
5,"[2.67, 2.67]",0,12,12,34,,,,,2,0,2,0,right,0.341969431418,as,m,26,59.9829521239,Set,2017_03_17_1604,
5,"[2.67, 2.67]",0,12,12,34,,,,,3,0,3,0,down,0.375451581324,as,m,26,59.9829521239,Set,2017_03_17_1604,
5,"[2.67, 2.67]",0,12,12,34,,,,,4,0,4,0,down,0.2589080732,as,m,26,59.9829521239,Set,2017_03_17_1604,
8,"[2.67, 2.67]",0,13,13,37,,,,,0,0,0,0,down,0.79215495871,as,m,26,59.9829521239,Set,2017_03_17_1604,
8,"[2.67, 2.67]",0,13,13,37,,,,,1,0,1,0,down,0.12546776562,as,m,26,59.9829521239,Set,2017_03_17_1604,
3,"[2.6, 2.6]",0,14,14,2,,,,,0,0,0,0,right,0.633585966242,as,m,26,59.9829521239,Set,2017_03_17_1604,
3,"[2.6, 2.6]",0,14,14,2,,,,,1,0,1,0,left,0.59210759004,as,m,26,59.9829521239,Set,2017_03_17_1604,
3,"[2.6, 2.6]",0,14,14,2,,,,,2,0,2,0,left,0.466908246886,as,m,26,59.9829521239,Set,2017_03_17_1604,
3,"[2.6, 2.6]",0,14,14,2,,,,,3,0,3,0,left,0.525497371039,as,m,26,59.9829521239,Set,2017_03_17_1604,
3,"[2.6, 2.6]",0,14,14,2,,,,,4,0,4,0,down,0.408793204175,as,m,26,59.9829521239,Set,2017_03_17_1604,
3,"[2.6, 2.6]",0,14,14,2,,,,,5,0,5,0,down,0.30881688851,as,m,26,59.9829521239,Set,2017_03_17_1604,
6,"[2.7, 2.7]",0,15,15,15,,,,,0,0,0,0,left,1.65876596719,as,m,26,59.9829521239,Set,2017_03_17_1604,
6,"[2.7, 2.7]",0,15,15,15,,,,,1,0,1,0,left,0.542109563735,as,m,26,59.9829521239,Set,2017_03_17_1604,
6,"[2.7, 2.7]",0,15,15,15,,,,,2,0,2,0,left,0.525461055058,as,m,26,59.9829521239,Set,2017_03_17_1604,
6,"[2.7, 2.7]",0,15,15,15,,,,,3,0,3,0,down,0.616931536482,as,m,26,59.9829521239,Set,2017_03_17_1604,
6,"[2.7, 2.7]",0,15,15,15,,,,,4,0,4,0,down,0.642109168996,as,m,26,59.9829521239,Set,2017_03_17_1604,
6,"[2.7, 2.7]",0,15,15,15,,,,,5,0,5,0,left,0.408799914737,as,m,26,59.9829521239,Set,2017_03_17_1604,
6,"[2.7, 2.7]",0,15,15,15,,,,,6,0,6,0,left,0.342167985095,as,m,26,59.9829521239,Set,2017_03_17_1604,
6,"[2.7, 2.7]",0,15,15,15,,,,,7,0,7,0,left,0.342151011321,as,m,26,59.9829521239,Set,2017_03_17_1604,
6,"[2.7, 2.7]",0,15,15,15,,,,,8,0,8,0,left,0.375561713483,as,m,26,59.9829521239,Set,2017_03_17_1604,
6,"[2.7, 2.7]",0,15,15,15,,,,,9,0,9,0,left,0.308821625377,as,m,26,59.9829521239,Set,2017_03_17_1604,
6,"[2.7, 2.7]",0,15,15,15,,,,,10,0,10,0,down,0.425435791768,as,m,26,59.9829521239,Set,2017_03_17_1604,
6,"[2.7, 2.7]",0,15,15,15,,,,,11,0,11,0,left,0.283493992074,as,m,26,59.9829521239,Set,2017_03_17_1604,
6,"[2.7, 2.7]",0,15,15,15,,,,,12,0,12,0,down,0.616899167891,as,m,26,59.9829521239,Set,2017_03_17_1604,
6,"[2.7, 2.7]",0,15,15,15,,,,,13,0,13,0,right,0.616942589171,as,m,26,59.9829521239,Set,2017_03_17_1604,
6,"[2.7, 2.7]",0,15,15,15,,,,,14,0,14,0,down,0.633561887168,as,m,26,59.9829521239,Set,2017_03_17_1604,
6,"[2.7, 2.7]",0,15,15,15,,,,,15,0,15,0,down,0.342117853252,as,m,26,59.9829521239,Set,2017_03_17_1604,
8,"[2.6, 2.6]",0,16,16,7,,,,,0,0,0,0,down,0.775485528871,as,m,26,59.9829521239,Set,2017_03_17_1604,
8,"[2.6, 2.6]",0,16,16,7,,,,,1,0,1,0,down,0.342124563814,as,m,26,59.9829521239,Set,2017_03_17_1604,
5,"[2.6, 2.6]",0,17,17,4,,,,,0,0,0,0,left,0.475457502408,as,m,26,59.9829521239,Set,2017_03_17_1604,
5,"[2.6, 2.6]",0,17,17,4,,,,,1,0,1,0,right,0.408786098874,as,m,26,59.9829521239,Set,2017_03_17_1604,
5,"[2.6, 2.6]",0,17,17,4,,,,,2,0,2,0,left,0.308650308686,as,m,26,59.9829521239,Set,2017_03_17_1604,
5,"[2.6, 2.6]",0,17,17,4,,,,,3,0,3,0,left,0.325442502329,as,m,26,59.9829521239,Set,2017_03_17_1604,
5,"[2.6, 2.6]",0,17,17,4,,,,,4,0,4,0,right,0.358811362165,as,m,26,59.9829521239,Set,2017_03_17_1604,
5,"[2.6, 2.6]",0,17,17,4,,,,,5,0,5,0,left,0.275476449876,as,m,26,59.9829521239,Set,2017_03_17_1604,
5,"[2.6, 2.6]",0,17,17,4,,,,,6,0,6,0,left,0.225455133974,as,m,26,59.9829521239,Set,2017_03_17_1604,
5,"[2.6, 2.6]",0,17,17,4,,,,,7,0,7,0,left,0.308781362007,as,m,26,59.9829521239,Set,2017_03_17_1604,
5,"[2.6, 2.6]",0,17,17,4,,,,,8,0,8,0,left,0.258739914421,as,m,26,59.9829521239,Set,2017_03_17_1604,
5,"[2.6, 2.6]",0,17,17,4,,,,,9,0,9,0,down,0.325465397186,as,m,26,59.9829521239,Set,2017_03_17_1604,
5,"[2.6, 2.6]",0,17,17,4,,,,,10,0,10,0,down,0.392106011084,as,m,26,59.9829521239,Set,2017_03_17_1604,
6,"[2.67, 2.67]",0,18,18,35,,,,,0,0,0,0,left,1.14213719546,as,m,26,59.9829521239,Set,2017_03_17_1604,
6,"[2.67, 2.67]",0,18,18,35,,,,,1,0,1,0,down,0.442103642651,as,m,26,59.9829521239,Set,2017_03_17_1604,
6,"[2.67, 2.67]",0,18,18,35,,,,,2,0,2,0,down,0.308787283091,as,m,26,59.9829521239,Set,2017_03_17_1604,
1,"[2.63, 2.63]",0,19,19,20,,,,,0,0,0,0,left,0.758777019879,as,m,26,59.9829521239,Set,2017_03_17_1604,
1,"[2.63, 2.63]",0,19,19,20,,,,,1,0,1,0,left,0.442211406376,as,m,26,59.9829521239,Set,2017_03_17_1604,
1,"[2.63, 2.63]",0,19,19,20,,,,,2,0,2,0,left,0.475468555098,as,m,26,59.9829521239,Set,2017_03_17_1604,
1,"[2.63, 2.63]",0,19,19,20,,,,,3,0,3,0,left,0.325484739393,as,m,26,59.9829521239,Set,2017_03_17_1604,
1,"[2.63, 2.63]",0,19,19,20,,,,,4,0,4,0,left,0.325452765541,as,m,26,59.9829521239,Set,2017_03_17_1604,
1,"[2.63, 2.63]",0,19,19,20,,,,,5,0,5,0,left,0.308798335781,as,m,26,59.9829521239,Set,2017_03_17_1604,
1,"[2.63, 2.63]",0,19,19,20,,,,,6,0,6,0,left,0.392127721725,as,m,26,59.9829521239,Set,2017_03_17_1604,
1,"[2.63, 2.63]",0,19,19,20,,,,,7,0,7,0,down,0.208789651525,as,m,26,59.9829521239,Set,2017_03_17_1604,
1,"[2.63, 2.63]",0,19,19,20,,,,,8,0,8,0,down,0.0754709235314,as,m,26,59.9829521239,Set,2017_03_17_1604,
1,"[2.6, 2.6]",0,20,20,0,,,,,0,0,0,0,left,1.00029526471,as,m,26,59.9829521239,Set,2017_03_17_1604,
1,"[2.6, 2.6]",0,20,20,0,,,,,1,0,1,0,down,0.425471713009,as,m,26,59.9829521239,Set,2017_03_17_1604,
1,"[2.6, 2.6]",0,20,20,0,,,,,2,0,2,0,down,0.258792414697,as,m,26,59.9829521239,Set,2017_03_17_1604,
4,"[2.67, 2.67]",0,21,21,33,,,,,0,0,0,0,left,1.24211745851,as,m,26,59.9829521239,Set,2017_03_17_1604,
4,"[2.67, 2.67]",0,21,21,33,,,,,1,0,1,0,down,0.458760440844,as,m,26,59.9829521239,Set,2017_03_17_1604,
4,"[2.67, 2.67]",0,21,21,33,,,,,2,0,2,0,down,0.408785309396,as,m,26,59.9829521239,Set,2017_03_17_1604,
6,"[2.6, 2.6]",0,22,22,5,,,,,0,0,0,0,down,0.650247896041,as,m,26,59.9829521239,Set,2017_03_17_1604,
6,"[2.6, 2.6]",0,22,22,5,,,,,1,0,1,0,down,0.275416054821,as,m,26,59.9829521239,Set,2017_03_17_1604,
4,"[2.63, 2.63]",0,23,23,23,,,,,0,0,0,0,down,0.858717414302,as,m,26,59.9829521239,Set,2017_03_17_1604,
4,"[2.63, 2.63]",0,23,23,23,,,,,1,0,1,0,down,0.225458686625,as,m,26,59.9829521239,Set,2017_03_17_1604,
8,"[2.63, 2.63]",0,24,24,27,,,,,0,0,0,0,right,1.40021671167,as,m,26,59.9829521239,Set,2017_03_17_1604,
8,"[2.63, 2.63]",0,24,24,27,,,,,1,0,1,0,down,0.475456318191,as,m,26,59.9829521239,Set,2017_03_17_1604,
8,"[2.63, 2.63]",0,24,24,27,,,,,2,0,2,0,down,0.775473291965,as,m,26,59.9829521239,Set,2017_03_17_1604,
10,"[2.63, 2.63]",0,25,25,29,,,,,0,0,0,0,down,0.675464212969,as,m,26,59.9829521239,Set,2017_03_17_1604,
10,"[2.63, 2.63]",0,25,25,29,,,,,1,0,1,0,down,0.292147458671,as,m,26,59.9829521239,Set,2017_03_17_1604,
4,"[2.6, 2.6]",0,26,26,3,,,,,0,0,0,0,down,1.48359938737,as,m,26,59.9829521239,Set,2017_03_17_1604,
4,"[2.6, 2.6]",0,26,26,3,,,,,1,0,1,0,down,0.308790441002,as,m,26,59.9829521239,Set,2017_03_17_1604,
10,"[2.7, 2.7]",0,27,27,19,,,,,0,0,0,0,right,1.85885912557,as,m,26,59.9829521239,Set,2017_03_17_1604,
10,"[2.7, 2.7]",0,27,27,19,,,,,1,0,1,0,down,0.992101274217,as,m,26,59.9829521239,Set,2017_03_17_1604,
10,"[2.7, 2.7]",0,27,27,19,,,,,2,0,2,0,down,0.508790046263,as,m,26,59.9829521239,Set,2017_03_17_1604,
1,"[2.67, 2.67]",0,28,28,30,,,,,0,0,0,0,down,1.65881096743,as,m,26,59.9829521239,Set,2017_03_17_1604,
1,"[2.67, 2.67]",0,28,28,30,,,,,1,0,1,0,left,0.72529960684,as,m,26,59.9829521239,Set,2017_03_17_1604,
1,"[2.67, 2.67]",0,28,28,30,,,,,2,0,2,0,left,0.592130879636,as,m,26,59.9829521239,Set,2017_03_17_1604,
1,"[2.67, 2.67]",0,28,28,30,,,,,3,0,3,0,left,0.558823204333,as,m,26,59.9829521239,Set,2017_03_17_1604,
1,"[2.67, 2.67]",0,28,28,30,,,,,4,0,4,0,down,0.458800309475,as,m,26,59.9829521239,Set,2017_03_17_1604,
1,"[2.67, 2.67]",0,28,28,30,,,,,5,0,5,0,down,0.275465002447,as,m,26,59.9829521239,Set,2017_03_17_1604,
7,"[2.67, 2.67]",0,29,29,36,,,,,0,0,0,0,right,1.04212495855,as,m,26,59.9829521239,Set,2017_03_17_1604,
7,"[2.67, 2.67]",0,29,29,36,,,,,1,0,1,0,left,0.45900675793,as,m,26,59.9829521239,Set,2017_03_17_1604,
7,"[2.67, 2.67]",0,29,29,36,,,,,2,0,2,0,left,0.358777809357,as,m,26,59.9829521239,Set,2017_03_17_1604,
7,"[2.67, 2.67]",0,29,29,36,,,,,3,0,3,0,down,0.525422370644,as,m,26,59.9829521239,Set,2017_03_17_1604,
7,"[2.67, 2.67]",0,29,29,36,,,,,4,0,4,0,right,0.425457502408,as,m,26,59.9829521239,Set,2017_03_17_1604,
7,"[2.67, 2.67]",0,29,29,36,,,,,5,0,5,0,left,0.342152590277,as,m,26,59.9829521239,Set,2017_03_17_1604,
7,"[2.67, 2.67]",0,29,29,36,,,,,6,0,6,0,left,0.34212219538,as,m,26,59.9829521239,Set,2017_03_17_1604,
7,"[2.67, 2.67]",0,29,29,36,,,,,7,0,7,0,right,0.392115484818,as,m,26,59.9829521239,Set,2017_03_17_1604,
7,"[2.67, 2.67]",0,29,29,36,,,,,8,0,8,0,left,0.40874741446,as,m,26,59.9829521239,Set,2017_03_17_1604,
7,"[2.67, 2.67]",0,29,29,36,,,,,9,0,9,0,down,0.225443686546,as,m,26,59.9829521239,Set,2017_03_17_1604,
7,"[2.67, 2.67]",0,29,29,36,,,,,10,0,10,0,down,0.0588204411604,as,m,26,59.9829521239,Set,2017_03_17_1604,
5,"[2.7, 2.7]",0,30,30,14,,,,,0,0,0,0,left,0.958788072569,as,m,26,59.9829521239,Set,2017_03_17_1604,
5,"[2.7, 2.7]",0,30,30,14,,,,,1,0,1,0,down,0.592130090158,as,m,26,59.9829521239,Set,2017_03_17_1604,
5,"[2.7, 2.7]",0,30,30,14,,,,,2,0,2,0,down,0.425490265738,as,m,26,59.9829521239,Set,2017_03_17_1604,
2,"[2.67, 2.67]",0,31,31,31,,,,,0,0,0,0,left,0.808773467229,as,m,26,59.9829521239,Set,2017_03_17_1604,
2,"[2.67, 2.67]",0,31,31,31,,,,,1,0,1,0,left,0.508801493692,as,m,26,59.9829521239,Set,2017_03_17_1604,
2,"[2.67, 2.67]",0,31,31,31,,,,,2,0,2,0,left,0.342085089922,as,m,26,59.9829521239,Set,2017_03_17_1604,
2,"[2.67, 2.67]",0,31,31,31,,,,,3,0,3,0,left,0.358731624903,as,m,26,59.9829521239,Set,2017_03_17_1604,
2,"[2.67, 2.67]",0,31,31,31,,,,,4,0,4,0,left,0.375450397107,as,m,26,59.9829521239,Set,2017_03_17_1604,
2,"[2.67, 2.67]",0,31,31,31,,,,,5,0,5,0,left,0.358788072569,as,m,26,59.9829521239,Set,2017_03_17_1604,
2,"[2.67, 2.67]",0,31,31,31,,,,,6,0,6,0,left,0.292116669035,as,m,26,59.9829521239,Set,2017_03_17_1604,
2,"[2.67, 2.67]",0,31,31,31,,,,,7,0,7,0,down,0.450222238012,as,m,26,59.9829521239,Set,2017_03_17_1604,
2,"[2.67, 2.67]",0,31,31,31,,,,,8,0,8,0,down,0.208774651446,as,m,26,59.9829521239,Set,2017_03_17_1604,
2,"[2.6, 2.6]",0,32,32,1,,,,,0,0,0,0,down,0.675474476182,as,m,26,59.9829521239,Set,2017_03_17_1604,
2,"[2.6, 2.6]",0,32,32,1,,,,,1,0,1,0,down,0.24192837857,as,m,26,59.9829521239,Set,2017_03_17_1604,
3,"[2.63, 2.63]",0,33,33,22,,,,,0,0,0,0,right,0.992105616345,as,m,26,59.9829521239,Set,2017_03_17_1604,
3,"[2.63, 2.63]",0,33,33,22,,,,,1,0,1,0,down,0.525443686546,as,m,26,59.9829521239,Set,2017_03_17_1604,
3,"[2.63, 2.63]",0,33,33,22,,,,,2,0,2,0,down,0.392127721725,as,m,26,59.9829521239,Set,2017_03_17_1604,
2,"[2.7, 2.7]",0,34,34,11,,,,,0,0,0,0,left,0.558790835741,as,m,26,59.9829521239,Set,2017_03_17_1604,
2,"[2.7, 2.7]",0,34,34,11,,,,,1,0,1,0,left,0.342115879557,as,m,26,59.9829521239,Set,2017_03_17_1604,
2,"[2.7, 2.7]",0,34,34,11,,,,,2,0,2,0,down,0.408789256786,as,m,26,59.9829521239,Set,2017_03_17_1604,
2,"[2.7, 2.7]",0,34,34,11,,,,,3,0,3,0,down,0.542094168917,as,m,26,59.9829521239,Set,2017_03_17_1604,
7,"[2.7, 2.7]",0,35,35,16,,,,,0,0,0,0,right,0.483626229612,as,m,26,59.9829521239,Set,2017_03_17_1604,
7,"[2.7, 2.7]",0,35,35,16,,,,,1,0,1,0,left,0.325466976142,as,m,26,59.9829521239,Set,2017_03_17_1604,
7,"[2.7, 2.7]",0,35,35,16,,,,,2,0,2,0,left,0.408826756983,as,m,26,59.9829521239,Set,2017_03_17_1604,
7,"[2.7, 2.7]",0,35,35,16,,,,,3,0,3,0,down,0.475451186585,as,m,26,59.9829521239,Set,2017_03_17_1604,
7,"[2.7, 2.7]",0,35,35,16,,,,,4,0,4,0,down,0.275455133974,as,m,26,59.9829521239,Set,2017_03_17_1604,
7,"[2.7, 2.7]",0,35,35,16,,,,,5,0,5,0,left,0.242157327144,as,m,26,59.9829521239,Set,2017_03_17_1604,
7,"[2.7, 2.7]",0,35,35,16,,,,,6,0,6,0,left,0.275495792083,as,m,26,59.9829521239,Set,2017_03_17_1604,
7,"[2.7, 2.7]",0,35,35,16,,,,,7,0,7,0,left,0.258803072648,as,m,26,59.9829521239,Set,2017_03_17_1604,
7,"[2.7, 2.7]",0,35,35,16,,,,,8,0,8,0,down,0.308841757062,as,m,26,59.9829521239,Set,2017_03_17_1604,
7,"[2.7, 2.7]",0,35,35,16,,,,,9,0,9,0,left,0.242122984858,as,m,26,59.9829521239,Set,2017_03_17_1604,
7,"[2.7, 2.7]",0,35,35,16,,,,,10,0,10,0,left,0.292125353291,as,m,26,59.9829521239,Set,2017_03_17_1604,
7,"[2.7, 2.7]",0,35,35,16,,,,,11,0,11,0,left,0.292099300523,as,m,26,59.9829521239,Set,2017_03_17_1604,
7,"[2.7, 2.7]",0,35,35,16,,,,,12,0,12,0,left,0.208797941042,as,m,26,59.9829521239,Set,2017_03_17_1604,
7,"[2.7, 2.7]",0,35,35,16,,,,,13,0,13,0,left,0.258810967426,as,m,26,59.9829521239,Set,2017_03_17_1604,
7,"[2.7, 2.7]",0,35,35,16,,,,,14,0,14,0,left,0.258799519997,as,m,26,59.9829521239,Set,2017_03_17_1604,
7,"[2.7, 2.7]",0,35,35,16,,,,,15,0,15,0,left,0.208632940173,as,m,26,59.9829521239,Set,2017_03_17_1604,
7,"[2.7, 2.7]",0,35,35,16,,,,,16,0,16,0,left,0.192102458434,as,m,26,59.9829521239,Set,2017_03_17_1604,
7,"[2.7, 2.7]",0,35,35,16,,,,,17,0,17,0,left,0.208793204175,as,m,26,59.9829521239,Set,2017_03_17_1604,
7,"[2.7, 2.7]",0,35,35,16,,,,,18,0,18,0,left,0.175474476181,as,m,26,59.9829521239,Set,2017_03_17_1604,
7,"[2.7, 2.7]",0,35,35,16,,,,,19,0,19,0,down,0.275455133974,as,m,26,59.9829521239,Set,2017_03_17_1604,
7,"[2.7, 2.7]",0,35,35,16,,,,,20,0,20,0,down,0.125450002368,as,m,26,59.9829521239,Set,2017_03_17_1604,
3,"[2.7, 2.7]",0,36,36,12,,,,,0,0,0,0,left,0.458820835899,as,m,26,59.9829521239,Set,2017_03_17_1604,
3,"[2.7, 2.7]",0,36,36,12,,,,,1,0,1,0,left,0.308764388234,as,m,26,59.9829521239,Set,2017_03_17_1604,
3,"[2.7, 2.7]",0,36,36,12,,,,,2,0,2,0,left,0.242115484818,as,m,26,59.9829521239,Set,2017_03_17_1604,
3,"[2.7, 2.7]",0,36,36,12,,,,,3,0,3,0,left,0.158802677909,as,m,26,59.9829521239,Set,2017_03_17_1604,
3,"[2.7, 2.7]",0,36,36,12,,,,,4,0,4,0,left,0.192113511124,as,m,26,59.9829521239,Set,2017_03_17_1604,
3,"[2.7, 2.7]",0,36,36,12,,,,,5,0,5,0,left,0.225452370802,as,m,26,59.9829521239,Set,2017_03_17_1604,
3,"[2.7, 2.7]",0,36,36,12,,,,,6,0,6,0,left,0.292137195459,as,m,26,59.9829521239,Set,2017_03_17_1604,
3,"[2.7, 2.7]",0,36,36,12,,,,,7,0,7,0,down,0.358784125179,as,m,26,59.9829521239,Set,2017_03_17_1604,
3,"[2.7, 2.7]",0,36,36,12,,,,,8,0,8,0,down,0.0754634234918,as,m,26,59.9829521239,Set,2017_03_17_1604,
9,"[2.63, 2.63]",0,37,37,28,,,,,0,0,0,0,down,0.666884957289,as,m,26,59.9829521239,Set,2017_03_17_1604,
9,"[2.63, 2.63]",0,37,37,28,,,,,1,0,1,0,down,0.108801888431,as,m,26,59.9829521239,Set,2017_03_17_1604,
8,"[2.7, 2.7]",0,38,38,17,,,,,0,0,0,0,left,0.392117458513,as,m,26,59.9829521239,Set,2017_03_17_1604,
8,"[2.7, 2.7]",0,38,38,17,,,,,1,0,1,0,left,0.258800309475,as,m,26,59.9829521239,Set,2017_03_17_1604,
8,"[2.7, 2.7]",0,38,38,17,,,,,2,0,2,0,left,0.258813730599,as,m,26,59.9829521239,Set,2017_03_17_1604,
8,"[2.7, 2.7]",0,38,38,17,,,,,3,0,3,0,left,0.258789256786,as,m,26,59.9829521239,Set,2017_03_17_1604,
8,"[2.7, 2.7]",0,38,38,17,,,,,4,0,4,0,left,0.258799519997,as,m,26,59.9829521239,Set,2017_03_17_1604,
8,"[2.7, 2.7]",0,38,38,17,,,,,5,0,5,0,left,0.325461844536,as,m,26,59.9829521239,Set,2017_03_17_1604,
8,"[2.7, 2.7]",0,38,38,17,,,,,6,0,6,0,left,0.308795572608,as,m,26,59.9829521239,Set,2017_03_17_1604,
8,"[2.7, 2.7]",0,38,38,17,,,,,7,0,7,0,left,0.292142327065,as,m,26,59.9829521239,Set,2017_03_17_1604,
8,"[2.7, 2.7]",0,38,38,17,,,,,8,0,8,0,left,0.17548592361,as,m,26,59.9829521239,Set,2017_03_17_1604,
8,"[2.7, 2.7]",0,38,38,17,,,,,9,0,9,0,left,0.192126142769,as,m,26,59.9829521239,Set,2017_03_17_1604,
8,"[2.7, 2.7]",0,38,38,17,,,,,10,0,10,0,left,0.225518292202,as,m,26,59.9829521239,Set,2017_03_17_1604,
8,"[2.7, 2.7]",0,38,38,17,,,,,11,0,11,0,left,0.225470923531,as,m,26,59.9829521239,Set,2017_03_17_1604,
8,"[2.7, 2.7]",0,38,38,17,,,,,12,0,12,0,down,0.325401054743,as,m,26,59.9829521239,Set,2017_03_17_1604,
8,"[2.7, 2.7]",0,38,38,17,,,,,13,0,13,0,left,0.192094563656,as,m,26,59.9829521239,Set,2017_03_17_1604,
8,"[2.7, 2.7]",0,38,38,17,,,,,14,0,14,0,left,0.325450002368,as,m,26,59.9829521239,Set,2017_03_17_1604,
8,"[2.7, 2.7]",0,38,38,17,,,,,15,0,15,0,left,0.358777019879,as,m,26,59.9829521239,Set,2017_03_17_1604,
8,"[2.7, 2.7]",0,38,38,17,,,,,16,0,16,0,down,0.275425528555,as,m,26,59.9829521239,Set,2017_03_17_1604,
8,"[2.7, 2.7]",0,38,38,17,,,,,17,0,17,0,down,0.0921221953799,as,m,26,59.9829521239,Set,2017_03_17_1604,
10,"[2.6, 2.6]",0,39,39,9,,,,,0,0,0,0,down,0.400221843273,as,m,26,59.9829521239,Set,2017_03_17_1604,
10,"[2.6, 2.6]",0,39,39,9,,,,,1,0,1,0,down,0.125444476023,as,m,26,59.9829521239,Set,2017_03_17_1604,
10,"[2.6, 2.6]",0,39,39,9,,,,,2,0,2,0,left,0.258766361928,as,m,26,59.9829521239,Set,2017_03_17_1604,
10,"[2.6, 2.6]",0,39,39,9,,,,,3,0,3,0,left,0.192111537429,as,m,26,59.9829521239,Set,2017_03_17_1604,
10,"[2.6, 2.6]",0,39,39,9,,,,,4,0,4,0,left,0.225457502408,as,m,26,59.9829521239,Set,2017_03_17_1604,
10,"[2.6, 2.6]",0,39,39,9,,,,,5,0,5,0,left,0.208805441081,as,m,26,59.9829521239,Set,2017_03_17_1604,
10,"[2.6, 2.6]",0,39,39,9,,,,,6,0,6,0,down,0.192112326907,as,m,26,59.9829521239,Set,2017_03_17_1604,
10,"[2.6, 2.6]",0,39,39,9,,,,,7,0,7,0,down,0.0921328533309,as,m,26,59.9829521239,Set,2017_03_17_1604,
10,"[2.6, 2.6]",0,39,39,9,,,,,8,0,8,0,left,0.125463818231,as,m,26,59.9829521239,Set,2017_03_17_1604,
10,"[2.6, 2.6]",0,39,39,9,,,,,9,0,9,0,left,0.208821625377,as,m,26,59.9829521239,Set,2017_03_17_1604,
10,"[2.6, 2.6]",0,39,39,9,,,,,10,0,10,0,left,0.242123774336,as,m,26,59.9829521239,Set,2017_03_17_1604,
10,"[2.6, 2.6]",0,39,39,9,,,,,11,0,11,0,left,0.208793204175,as,m,26,59.9829521239,Set,2017_03_17_1604,
10,"[2.6, 2.6]",0,39,39,9,,,,,12,0,12,0,down,0.275443686546,as,m,26,59.9829521239,Set,2017_03_17_1604,
10,"[2.6, 2.6]",0,39,39,9,,,,,13,0,13,0,down,0.125487502566,as,m,26,59.9829521239,Set,2017_03_17_1604,
10,"[2.63, 2.63]",1,0,40,29,,,,,0,0,0,0,right,0.958811362165,as,m,26,59.9829521239,Set,2017_03_17_1604,
10,"[2.63, 2.63]",1,0,40,29,,,,,1,0,1,0,down,0.408792019958,as,m,26,59.9829521239,Set,2017_03_17_1604,
10,"[2.63, 2.63]",1,0,40,29,,,,,2,0,2,0,left,0.308779388313,as,m,26,59.9829521239,Set,2017_03_17_1604,
10,"[2.63, 2.63]",1,0,40,29,,,,,3,0,3,0,left,0.242135221764,as,m,26,59.9829521239,Set,2017_03_17_1604,
10,"[2.63, 2.63]",1,0,40,29,,,,,4,0,4,0,left,0.192121800641,as,m,26,59.9829521239,Set,2017_03_17_1604,
10,"[2.63, 2.63]",1,0,40,29,,,,,5,0,5,0,left,0.192098511045,as,m,26,59.9829521239,Set,2017_03_17_1604,
10,"[2.63, 2.63]",1,0,40,29,,,,,6,0,6,0,down,0.358814520076,as,m,26,59.9829521239,Set,2017_03_17_1604,
10,"[2.63, 2.63]",1,0,40,29,,,,,7,0,7,0,down,0.0754484234128,as,m,26,59.9829521239,Set,2017_03_17_1604,
5,"[2.7, 2.7]",1,1,41,14,,,,,0,0,0,0,down,0.57546776562,as,m,26,59.9829521239,Set,2017_03_17_1604,
5,"[2.7, 2.7]",1,1,41,14,,,,,1,0,1,0,down,0.158788862047,as,m,26,59.9829521239,Set,2017_03_17_1604,
5,"[2.67, 2.67]",1,2,42,34,,,,,0,0,0,0,down,0.533536229138,as,m,26,59.9829521239,Set,2017_03_17_1604,
5,"[2.67, 2.67]",1,2,42,34,,,,,1,0,1,0,left,0.558756493455,as,m,26,59.9829521239,Set,2017_03_17_1604,
5,"[2.67, 2.67]",1,2,42,34,,,,,2,0,2,0,down,0.79206022137,as,m,26,59.9829521239,Set,2017_03_17_1604,
5,"[2.67, 2.67]",1,2,42,34,,,,,3,0,3,0,down,0.142120221685,as,m,26,59.9829521239,Set,2017_03_17_1604,
4,"[2.6, 2.6]",1,3,43,3,,,,,0,0,0,0,down,0.558788072569,as,m,26,59.9829521239,Set,2017_03_17_1604,
4,"[2.6, 2.6]",1,3,43,3,,,,,1,0,1,0,down,0.192126142769,as,m,26,59.9829521239,Set,2017_03_17_1604,
9,"[2.67, 2.67]",1,4,44,38,,,,,0,0,0,0,right,0.742150221843,as,m,26,59.9829521239,Set,2017_03_17_1604,
9,"[2.67, 2.67]",1,4,44,38,,,,,1,0,1,0,left,0.45880978321,as,m,26,59.9829521239,Set,2017_03_17_1604,
9,"[2.67, 2.67]",1,4,44,38,,,,,2,0,2,0,left,0.342113905863,as,m,26,59.9829521239,Set,2017_03_17_1604,
9,"[2.67, 2.67]",1,4,44,38,,,,,3,0,3,0,left,0.358772677751,as,m,26,59.9829521239,Set,2017_03_17_1604,
9,"[2.67, 2.67]",1,4,44,38,,,,,4,0,4,0,left,0.175456318191,as,m,26,59.9829521239,Set,2017_03_17_1604,
9,"[2.67, 2.67]",1,4,44,38,,,,,5,0,5,0,left,0.175461844536,as,m,26,59.9829521239,Set,2017_03_17_1604,
9,"[2.67, 2.67]",1,4,44,38,,,,,6,0,6,0,left,2.35883899389,as,m,26,59.9829521239,Set,2017_03_17_1604,
9,"[2.67, 2.67]",1,4,44,38,,,,,7,0,7,0,left,0.258839388628,as,m,26,59.9829521239,Set,2017_03_17_1604,
9,"[2.67, 2.67]",1,4,44,38,,,,,8,0,8,0,left,0.892107195301,as,m,26,59.9829521239,Set,2017_03_17_1604,
9,"[2.67, 2.67]",1,4,44,38,,,,,9,0,9,0,left,0.208772677751,as,m,26,59.9829521239,Set,2017_03_17_1604,
9,"[2.67, 2.67]",1,4,44,38,,,,,10,0,10,0,down,0.275500134211,as,m,26,59.9829521239,Set,2017_03_17_1604,
9,"[2.67, 2.67]",1,4,44,38,,,,,11,0,11,0,left,0.292099695262,as,m,26,59.9829521239,Set,2017_03_17_1604,
9,"[2.67, 2.67]",1,4,44,38,,,,,12,0,12,0,left,0.242106800562,as,m,26,59.9829521239,Set,2017_03_17_1604,
9,"[2.67, 2.67]",1,4,44,38,,,,,13,0,13,0,left,0.258784914657,as,m,26,59.9829521239,Set,2017_03_17_1604,
9,"[2.67, 2.67]",1,4,44,38,,,,,14,0,14,0,left,0.275445265502,as,m,26,59.9829521239,Set,2017_03_17_1604,
9,"[2.67, 2.67]",1,4,44,38,,,,,15,0,15,0,left,0.242118247991,as,m,26,59.9829521239,Set,2017_03_17_1604,
9,"[2.67, 2.67]",1,4,44,38,,,,,16,0,16,0,left,0.208778204096,as,m,26,59.9829521239,Set,2017_03_17_1604,
9,"[2.67, 2.67]",1,4,44,38,,,,,17,0,17,0,left,0.208823599072,as,m,26,59.9829521239,Set,2017_03_17_1604,
9,"[2.67, 2.67]",1,4,44,38,,,,,18,0,18,0,left,0.208819256943,as,m,26,59.9829521239,Set,2017_03_17_1604,
9,"[2.67, 2.67]",1,4,44,38,,,,,19,0,19,0,left,0.258773861968,as,m,26,59.9829521239,Set,2017_03_17_1604,
9,"[2.67, 2.67]",1,4,44,38,,,,,20,0,20,0,down,0.325455528713,as,m,26,59.9829521239,Set,2017_03_17_1604,
9,"[2.67, 2.67]",1,4,44,38,,,,,21,0,21,0,down,0.108819256943,as,m,26,59.9829521239,Set,2017_03_17_1604,
9,"[2.67, 2.67]",1,4,44,38,,,,,22,0,22,0,left,0.192071668798,as,m,26,59.9829521239,Set,2017_03_17_1604,
9,"[2.67, 2.67]",1,4,44,38,,,,,23,0,23,0,left,0.192077984621,as,m,26,59.9829521239,Set,2017_03_17_1604,
9,"[2.67, 2.67]",1,4,44,38,,,,,24,0,24,0,down,0.242117063774,as,m,26,59.9829521239,Set,2017_03_17_1604,
9,"[2.67, 2.67]",1,4,44,38,,,,,25,0,25,0,down,0.158792809436,as,m,26,59.9829521239,Set,2017_03_17_1604,
7,"[2.6, 2.6]",1,5,45,6,,,,,0,0,0,0,down,0.633573729335,as,m,26,59.9829521239,Set,2017_03_17_1604,
7,"[2.6, 2.6]",1,5,45,6,,,,,1,0,1,0,down,0.308784519919,as,m,26,59.9829521239,Set,2017_03_17_1604,
9,"[2.63, 2.63]",1,6,46,28,,,,,0,0,0,0,right,0.775441712851,as,m,26,59.9829521239,Set,2017_03_17_1604,
9,"[2.63, 2.63]",1,6,46,28,,,,,1,0,1,0,left,0.325446054979,as,m,26,59.9829521239,Set,2017_03_17_1604,
9,"[2.63, 2.63]",1,6,46,28,,,,,2,0,2,0,left,0.292128905942,as,m,26,59.9829521239,Set,2017_03_17_1604,
9,"[2.63, 2.63]",1,6,46,28,,,,,3,0,3,0,left,0.225455528713,as,m,26,59.9829521239,Set,2017_03_17_1604,
9,"[2.63, 2.63]",1,6,46,28,,,,,4,0,4,0,left,0.242104826867,as,m,26,59.9829521239,Set,2017_03_17_1604,
9,"[2.63, 2.63]",1,6,46,28,,,,,5,0,5,0,down,0.325468160359,as,m,26,59.9829521239,Set,2017_03_17_1604,
9,"[2.63, 2.63]",1,6,46,28,,,,,6,0,6,0,down,0.442117458513,as,m,26,59.9829521239,Set,2017_03_17_1604,
1,"[2.67, 2.67]",1,7,47,30,,,,,0,0,0,0,right,0.933595045237,as,m,26,59.9829521239,Set,2017_03_17_1604,
1,"[2.67, 2.67]",1,7,47,30,,,,,1,0,1,0,left,0.592127326986,as,m,26,59.9829521239,Set,2017_03_17_1604,
1,"[2.67, 2.67]",1,7,47,30,,,,,2,0,2,0,down,0.442196406297,as,m,26,59.9829521239,Set,2017_03_17_1604,
1,"[2.67, 2.67]",1,7,47,30,,,,,3,0,3,0,down,0.258790835741,as,m,26,59.9829521239,Set,2017_03_17_1604,
8,"[2.6, 2.6]",1,8,48,7,,,,,0,0,0,0,left,0.492112721646,as,m,26,59.9829521239,Set,2017_03_17_1604,
8,"[2.6, 2.6]",1,8,48,7,,,,,1,0,1,0,left,0.300242369697,as,m,26,59.9829521239,Set,2017_03_17_1604,
8,"[2.6, 2.6]",1,8,48,7,,,,,2,0,2,0,down,0.325447239196,as,m,26,59.9829521239,Set,2017_03_17_1604,
8,"[2.6, 2.6]",1,8,48,7,,,,,3,0,3,0,down,0.408799914736,as,m,26,59.9829521239,Set,2017_03_17_1604,
8,"[2.67, 2.67]",1,9,49,37,,,,,0,0,0,0,left,0.650243553913,as,m,26,59.9829521239,Set,2017_03_17_1604,
8,"[2.67, 2.67]",1,9,49,37,,,,,1,0,1,0,left,0.742129695419,as,m,26,59.9829521239,Set,2017_03_17_1604,
8,"[2.67, 2.67]",1,9,49,37,,,,,2,0,2,0,left,0.566883773073,as,m,26,59.9829521239,Set,2017_03_17_1604,
8,"[2.67, 2.67]",1,9,49,37,,,,,3,0,3,0,down,0.67539829157,as,m,26,59.9829521239,Set,2017_03_17_1604,
8,"[2.67, 2.67]",1,9,49,37,,,,,4,0,4,0,left,0.325448028674,as,m,26,59.9829521239,Set,2017_03_17_1604,
8,"[2.67, 2.67]",1,9,49,37,,,,,5,0,5,0,left,0.192102853173,as,m,26,59.9829521239,Set,2017_03_17_1604,
8,"[2.67, 2.67]",1,9,49,37,,,,,6,0,6,0,left,0.225457897147,as,m,26,59.9829521239,Set,2017_03_17_1604,
8,"[2.67, 2.67]",1,9,49,37,,,,,7,0,7,0,left,0.258798335781,as,m,26,59.9829521239,Set,2017_03_17_1604,
8,"[2.67, 2.67]",1,9,49,37,,,,,8,0,8,0,down,0.325459476103,as,m,26,59.9829521239,Set,2017_03_17_1604,
8,"[2.67, 2.67]",1,9,49,37,,,,,9,0,9,0,left,0.275413686388,as,m,26,59.9829521239,Set,2017_03_17_1604,
8,"[2.67, 2.67]",1,9,49,37,,,,,10,0,10,0,left,0.175300791057,as,m,26,59.9829521239,Set,2017_03_17_1604,
8,"[2.67, 2.67]",1,9,49,37,,,,,11,0,11,0,left,0.225470923531,as,m,26,59.9829521239,Set,2017_03_17_1604,
8,"[2.67, 2.67]",1,9,49,37,,,,,12,0,12,0,left,0.258792809436,as,m,26,59.9829521239,Set,2017_03_17_1604,
8,"[2.67, 2.67]",1,9,49,37,,,,,13,0,13,0,left,0.258792809436,as,m,26,59.9829521239,Set,2017_03_17_1604,
8,"[2.67, 2.67]",1,9,49,37,,,,,14,0,14,0,left,0.375435397028,as,m,26,59.9829521239,Set,2017_03_17_1604,
8,"[2.67, 2.67]",1,9,49,37,,,,,15,0,15,0,left,0.158731624903,as,m,26,59.9829521239,Set,2017_03_17_1604,
8,"[2.67, 2.67]",1,9,49,37,,,,,16,0,16,0,left,0.175448028674,as,m,26,59.9829521239,Set,2017_03_17_1604,
8,"[2.67, 2.67]",1,9,49,37,,,,,17,0,17,0,left,0.208626624351,as,m,26,59.9829521239,Set,2017_03_17_1604,
8,"[2.67, 2.67]",1,9,49,37,,,,,18,0,18,0,left,0.175469344576,as,m,26,59.9829521239,Set,2017_03_17_1604,
8,"[2.67, 2.67]",1,9,49,37,,,,,19,0,19,0,left,0.258777019879,as,m,26,59.9829521239,Set,2017_03_17_1604,
8,"[2.67, 2.67]",1,9,49,37,,,,,20,0,20,0,down,0.54211114269,as,m,26,59.9829521239,Set,2017_03_17_1604,
8,"[2.67, 2.67]",1,9,49,37,,,,,21,0,21,0,down,0.275457107669,as,m,26,59.9829521239,Set,2017_03_17_1604,
2,"[2.7, 2.7]",1,10,50,11,,,,,0,0,0,0,right,0.566903904757,as,m,26,59.9829521239,Set,2017_03_17_1604,
2,"[2.7, 2.7]",1,10,50,11,,,,,1,0,1,0,right,0.325456318191,as,m,26,59.9829521239,Set,2017_03_17_1604,
2,"[2.7, 2.7]",1,10,50,11,,,,,2,0,2,0,right,0.425452370802,as,m,26,59.9829521239,Set,2017_03_17_1604,
2,"[2.7, 2.7]",1,10,50,11,,,,,3,0,3,0,left,0.492141932326,as,m,26,59.9829521239,Set,2017_03_17_1604,
2,"[2.7, 2.7]",1,10,50,11,,,,,4,0,4,0,down,0.258800704214,as,m,26,59.9829521239,Set,2017_03_17_1604,
2,"[2.7, 2.7]",1,10,50,11,,,,,5,0,5,0,down,0.0921344322865,as,m,26,59.9829521239,Set,2017_03_17_1604,
4,"[2.67, 2.67]",1,11,51,33,,,,,0,0,0,0,left,0.608781362007,as,m,26,59.9829521239,Set,2017_03_17_1604,
4,"[2.67, 2.67]",1,11,51,33,,,,,1,0,1,0,left,0.242134432287,as,m,26,59.9829521239,Set,2017_03_17_1604,
4,"[2.67, 2.67]",1,11,51,33,,,,,2,0,2,0,left,0.291982852541,as,m,26,59.9829521239,Set,2017_03_17_1604,
4,"[2.67, 2.67]",1,11,51,33,,,,,3,0,3,0,down,0.342124169075,as,m,26,59.9829521239,Set,2017_03_17_1604,
4,"[2.67, 2.67]",1,11,51,33,,,,,4,0,4,0,left,0.392129695419,as,m,26,59.9829521239,Set,2017_03_17_1604,
4,"[2.67, 2.67]",1,11,51,33,,,,,5,0,5,0,left,0.242200353686,as,m,26,59.9829521239,Set,2017_03_17_1604,
4,"[2.67, 2.67]",1,11,51,33,,,,,6,0,6,0,left,0.175296843668,as,m,26,59.9829521239,Set,2017_03_17_1604,
4,"[2.67, 2.67]",1,11,51,33,,,,,7,0,7,0,left,0.258790835741,as,m,26,59.9829521239,Set,2017_03_17_1604,
4,"[2.67, 2.67]",1,11,51,33,,,,,8,0,8,0,down,0.24213324807,as,m,26,59.9829521239,Set,2017_03_17_1604,
4,"[2.67, 2.67]",1,11,51,33,,,,,9,0,9,0,down,0.442148642888,as,m,26,59.9829521239,Set,2017_03_17_1604,
4,"[2.67, 2.67]",1,11,51,33,,,,,10,0,10,0,left,0.142164432445,as,m,26,59.9829521239,Set,2017_03_17_1604,
4,"[2.67, 2.67]",1,11,51,33,,,,,11,0,11,0,down,0.225466976142,as,m,26,59.9829521239,Set,2017_03_17_1604,
4,"[2.67, 2.67]",1,11,51,33,,,,,12,0,12,0,down,0.158756493455,as,m,26,59.9829521239,Set,2017_03_17_1604,
8,"[2.7, 2.7]",1,12,52,17,,,,,0,0,0,0,down,0.558812941121,as,m,26,59.9829521239,Set,2017_03_17_1604,
8,"[2.7, 2.7]",1,12,52,17,,,,,1,0,1,0,down,0.425457502408,as,m,26,59.9829521239,Set,2017_03_17_1604,
6,"[2.7, 2.7]",1,13,53,15,,,,,0,0,0,0,left,0.892110747951,as,m,26,59.9829521239,Set,2017_03_17_1604,
6,"[2.7, 2.7]",1,13,53,15,,,,,1,0,1,0,down,0.725453949758,as,m,26,59.9829521239,Set,2017_03_17_1604,
6,"[2.7, 2.7]",1,13,53,15,,,,,2,0,2,0,down,0.342139563892,as,m,26,59.9829521239,Set,2017_03_17_1604,
9,"[2.6, 2.6]",1,14,54,8,,,,,0,0,0,0,down,0.275484739394,as,m,26,59.9829521239,Set,2017_03_17_1604,
9,"[2.6, 2.6]",1,14,54,8,,,,,1,0,1,0,left,0.425436975984,as,m,26,59.9829521239,Set,2017_03_17_1604,
9,"[2.6, 2.6]",1,14,54,8,,,,,2,0,2,0,left,0.292131669114,as,m,26,59.9829521239,Set,2017_03_17_1604,
9,"[2.6, 2.6]",1,14,54,8,,,,,3,0,3,0,left,0.27544960763,as,m,26,59.9829521239,Set,2017_03_17_1604,
9,"[2.6, 2.6]",1,14,54,8,,,,,4,0,4,0,left,0.325469739314,as,m,26,59.9829521239,Set,2017_03_17_1604,
9,"[2.6, 2.6]",1,14,54,8,,,,,5,0,5,0,down,0.258782151485,as,m,26,59.9829521239,Set,2017_03_17_1604,
9,"[2.6, 2.6]",1,14,54,8,,,,,6,0,6,0,down,0.30878767783,as,m,26,59.9829521239,Set,2017_03_17_1604,
9,"[2.6, 2.6]",1,14,54,8,,,,,7,0,7,0,left,0.275483160438,as,m,26,59.9829521239,Set,2017_03_17_1604,
9,"[2.6, 2.6]",1,14,54,8,,,,,8,0,8,0,right,0.358793204175,as,m,26,59.9829521239,Set,2017_03_17_1604,
9,"[2.6, 2.6]",1,14,54,8,,,,,9,0,9,0,left,0.292099300523,as,m,26,59.9829521239,Set,2017_03_17_1604,
9,"[2.6, 2.6]",1,14,54,8,,,,,10,0,10,0,left,0.275448818152,as,m,26,59.9829521239,Set,2017_03_17_1604,
9,"[2.6, 2.6]",1,14,54,8,,,,,11,0,11,0,left,0.258771888273,as,m,26,59.9829521239,Set,2017_03_17_1604,
9,"[2.6, 2.6]",1,14,54,8,,,,,12,0,12,0,right,0.266950878689,as,m,26,59.9829521239,Set,2017_03_17_1604,
9,"[2.6, 2.6]",1,14,54,8,,,,,13,0,13,0,down,0.308802677909,as,m,26,59.9829521239,Set,2017_03_17_1604,
9,"[2.6, 2.6]",1,14,54,8,,,,,14,0,14,0,left,0.258790441002,as,m,26,59.9829521239,Set,2017_03_17_1604,
9,"[2.6, 2.6]",1,14,54,8,,,,,15,0,15,0,left,0.225474476181,as,m,26,59.9829521239,Set,2017_03_17_1604,
9,"[2.6, 2.6]",1,14,54,8,,,,,16,0,16,0,right,0.425470134053,as,m,26,59.9829521239,Set,2017_03_17_1604,
9,"[2.6, 2.6]",1,14,54,8,,,,,17,0,17,0,left,0.258631755957,as,m,26,59.9829521239,Set,2017_03_17_1604,
9,"[2.6, 2.6]",1,14,54,8,,,,,18,0,18,0,left,0.325448818152,as,m,26,59.9829521239,Set,2017_03_17_1604,
9,"[2.6, 2.6]",1,14,54,8,,,,,19,0,19,0,left,0.22547131827,as,m,26,59.9829521239,Set,2017_03_17_1604,
9,"[2.6, 2.6]",1,14,54,8,,,,,20,0,20,0,down,0.258818862205,as,m,26,59.9829521239,Set,2017_03_17_1604,
9,"[2.6, 2.6]",1,14,54,8,,,,,21,0,21,0,down,0.158799914736,as,m,26,59.9829521239,Set,2017_03_17_1604,
9,"[2.7, 2.7]",1,15,55,18,,,,,0,0,0,0,right,0.72544960763,as,m,26,59.9829521239,Set,2017_03_17_1604,
9,"[2.7, 2.7]",1,15,55,18,,,,,1,0,1,0,down,0.392109563734,as,m,26,59.9829521239,Set,2017_03_17_1604,
9,"[2.7, 2.7]",1,15,55,18,,,,,2,0,2,0,down,0.22545671293,as,m,26,59.9829521239,Set,2017_03_17_1604,
10,"[2.67, 2.67]",1,16,56,39,,,,,0,0,0,0,left,0.658807809515,as,m,26,59.9829521239,Set,2017_03_17_1604,
10,"[2.67, 2.67]",1,16,56,39,,,,,1,0,1,0,left,0.525468555098,as,m,26,59.9829521239,Set,2017_03_17_1604,
10,"[2.67, 2.67]",1,16,56,39,,,,,2,0,2,0,down,0.625427107511,as,m,26,59.9829521239,Set,2017_03_17_1604,
10,"[2.67, 2.67]",1,16,56,39,,,,,3,0,3,0,down,0.375461844536,as,m,26,59.9829521239,Set,2017_03_17_1604,
5,"[2.63, 2.63]",1,17,57,24,,,,,0,0,0,0,left,0.49213680072,as,m,26,59.9829521239,Set,2017_03_17_1604,
5,"[2.63, 2.63]",1,17,57,24,,,,,1,0,1,0,down,0.358607676882,as,m,26,59.9829521239,Set,2017_03_17_1604,
5,"[2.63, 2.63]",1,17,57,24,,,,,2,0,2,0,down,0.358767151406,as,m,26,59.9829521239,Set,2017_03_17_1604,
5,"[2.63, 2.63]",1,17,57,24,,,,,3,0,3,0,right,0.275444870762,as,m,26,59.9829521239,Set,2017_03_17_1604,
5,"[2.63, 2.63]",1,17,57,24,,,,,4,0,4,0,right,0.292141932326,as,m,26,59.9829521239,Set,2017_03_17_1604,
5,"[2.63, 2.63]",1,17,57,24,,,,,5,0,5,0,down,0.275467370881,as,m,26,59.9829521239,Set,2017_03_17_1604,
5,"[2.63, 2.63]",1,17,57,24,,,,,6,0,6,0,down,0.192132063853,as,m,26,59.9829521239,Set,2017_03_17_1604,
10,"[2.7, 2.7]",1,18,58,19,,,,,0,0,0,0,right,0.650258159254,as,m,26,59.9829521239,Set,2017_03_17_1604,
10,"[2.7, 2.7]",1,18,58,19,,,,,1,0,1,0,left,0.42546776562,as,m,26,59.9829521239,Set,2017_03_17_1604,
10,"[2.7, 2.7]",1,18,58,19,,,,,2,0,2,0,left,0.425437765462,as,m,26,59.9829521239,Set,2017_03_17_1604,
10,"[2.7, 2.7]",1,18,58,19,,,,,3,0,3,0,left,0.542123774336,as,m,26,59.9829521239,Set,2017_03_17_1604,
10,"[2.7, 2.7]",1,18,58,19,,,,,4,0,4,0,left,0.408754914499,as,m,26,59.9829521239,Set,2017_03_17_1604,
10,"[2.7, 2.7]",1,18,58,19,,,,,5,0,5,0,down,0.342134432286,as,m,26,59.9829521239,Set,2017_03_17_1604,
10,"[2.7, 2.7]",1,18,58,19,,,,,6,0,6,0,down,0.375485134132,as,m,26,59.9829521239,Set,2017_03_17_1604,
10,"[2.7, 2.7]",1,18,58,19,,,,,7,0,7,0,left,0.225448818152,as,m,26,59.9829521239,Set,2017_03_17_1604,
10,"[2.7, 2.7]",1,18,58,19,,,,,8,0,8,0,left,0.175440528634,as,m,26,59.9829521239,Set,2017_03_17_1604,
10,"[2.7, 2.7]",1,18,58,19,,,,,9,0,9,0,left,0.109018600098,as,m,26,59.9829521239,Set,2017_03_17_1604,
10,"[2.7, 2.7]",1,18,58,19,,,,,10,0,10,0,left,0.142112721646,as,m,26,59.9829521239,Set,2017_03_17_1604,
10,"[2.7, 2.7]",1,18,58,19,,,,,11,0,11,0,left,0.108799914736,as,m,26,59.9829521239,Set,2017_03_17_1604,
10,"[2.7, 2.7]",1,18,58,19,,,,,12,0,12,0,down,0.37545316028,as,m,26,59.9829521239,Set,2017_03_17_1604,
10,"[2.7, 2.7]",1,18,58,19,,,,,13,0,13,0,down,0.0254835551766,as,m,26,59.9829521239,Set,2017_03_17_1604,
2,"[2.63, 2.63]",1,19,59,21,,,,,0,0,0,0,left,3.05875215133,as,m,26,59.9829521239,Set,2017_03_17_1604,
2,"[2.63, 2.63]",1,19,59,21,,,,,1,0,1,0,left,0.908761230322,as,m,26,59.9829521239,Set,2017_03_17_1604,
2,"[2.63, 2.63]",1,19,59,21,,,,,2,0,2,0,left,0.592169958789,as,m,26,59.9829521239,Set,2017_03_17_1604,
2,"[2.63, 2.63]",1,19,59,21,,,,,3,0,3,0,left,0.408618334833,as,m,26,59.9829521239,Set,2017_03_17_1604,
2,"[2.63, 2.63]",1,19,59,21,,,,,4,0,4,0,left,0.592099300523,as,m,26,59.9829521239,Set,2017_03_17_1604,
2,"[2.63, 2.63]",1,19,59,21,,,,,5,0,5,0,left,0.525435791767,as,m,26,59.9829521239,Set,2017_03_17_1604,
2,"[2.63, 2.63]",1,19,59,21,,,,,6,0,6,0,left,0.375451976063,as,m,26,59.9829521239,Set,2017_03_17_1604,
2,"[2.63, 2.63]",1,19,59,21,,,,,7,0,7,0,down,0.675433028595,as,m,26,59.9829521239,Set,2017_03_17_1604,
2,"[2.63, 2.63]",1,19,59,21,,,,,8,0,8,0,down,0.358777809357,as,m,26,59.9829521239,Set,2017_03_17_1604,
2,"[2.63, 2.63]",1,19,59,21,,,,,9,0,9,0,left,0.608780177791,as,m,26,59.9829521239,Set,2017_03_17_1604,
2,"[2.63, 2.63]",1,19,59,21,,,,,10,0,10,0,left,0.55879478313,as,m,26,59.9829521239,Set,2017_03_17_1604,
2,"[2.63, 2.63]",1,19,59,21,,,,,11,0,11,0,left,0.433559518734,as,m,26,59.9829521239,Set,2017_03_17_1604,
2,"[2.63, 2.63]",1,19,59,21,,,,,12,0,12,0,down,0.425481581482,as,m,26,59.9829521239,Set,2017_03_17_1604,
2,"[2.63, 2.63]",1,19,59,21,,,,,13,0,13,0,left,0.392106800562,as,m,26,59.9829521239,Set,2017_03_17_1604,
2,"[2.63, 2.63]",1,19,59,21,,,,,14,0,14,0,left,0.392149037626,as,m,26,59.9829521239,Set,2017_03_17_1604,
2,"[2.63, 2.63]",1,19,59,21,,,,,15,0,15,0,left,0.258816493771,as,m,26,59.9829521239,Set,2017_03_17_1604,
2,"[2.63, 2.63]",1,19,59,21,,,,,16,0,16,0,left,0.242139563892,as,m,26,59.9829521239,Set,2017_03_17_1604,
2,"[2.63, 2.63]",1,19,59,21,,,,,17,0,17,0,left,0.475477634093,as,m,26,59.9829521239,Set,2017_03_17_1604,
2,"[2.63, 2.63]",1,19,59,21,,,,,18,0,18,0,left,0.492116669035,as,m,26,59.9829521239,Set,2017_03_17_1604,
2,"[2.63, 2.63]",1,19,59,21,,,,,19,0,19,0,down,0.458777809357,as,m,26,59.9829521239,Set,2017_03_17_1604,
2,"[2.63, 2.63]",1,19,59,21,,,,,20,0,20,0,down,0.325450791846,as,m,26,59.9829521239,Set,2017_03_17_1604,
1,"[2.63, 2.63]",1,20,60,20,,,,,0,0,0,0,left,0.642120221685,as,m,26,59.9829521239,Set,2017_03_17_1604,
1,"[2.63, 2.63]",1,20,60,20,,,,,1,0,1,0,left,0.325543160754,as,m,26,59.9829521239,Set,2017_03_17_1604,
1,"[2.63, 2.63]",1,20,60,20,,,,,2,0,2,0,left,0.275466186664,as,m,26,59.9829521239,Set,2017_03_17_1604,
1,"[2.63, 2.63]",1,20,60,20,,,,,3,0,3,0,left,0.325438949678,as,m,26,59.9829521239,Set,2017_03_17_1604,
1,"[2.63, 2.63]",1,20,60,20,,,,,4,0,4,0,right,0.942121800641,as,m,26,59.9829521239,Set,2017_03_17_1604,
1,"[2.63, 2.63]",1,20,60,20,,,,,5,0,5,0,down,0.258816099032,as,m,26,59.9829521239,Set,2017_03_17_1604,
1,"[2.63, 2.63]",1,20,60,20,,,,,6,0,6,0,down,0.192156537666,as,m,26,59.9829521239,Set,2017_03_17_1604,
1,"[2.7, 2.7]",1,21,61,10,,,,,0,0,0,0,down,0.658824783288,as,m,26,59.9829521239,Set,2017_03_17_1604,
1,"[2.7, 2.7]",1,21,61,10,,,,,1,0,1,0,left,0.475442502329,as,m,26,59.9829521239,Set,2017_03_17_1604,
1,"[2.7, 2.7]",1,21,61,10,,,,,2,0,2,0,down,0.258814520076,as,m,26,59.9829521239,Set,2017_03_17_1604,
1,"[2.7, 2.7]",1,21,61,10,,,,,3,0,3,0,down,0.242097326828,as,m,26,59.9829521239,Set,2017_03_17_1604,
4,"[2.63, 2.63]",1,22,62,23,,,,,0,0,0,0,left,0.675462239275,as,m,26,59.9829521239,Set,2017_03_17_1604,
4,"[2.63, 2.63]",1,22,62,23,,,,,1,0,1,0,left,0.342146669193,as,m,26,59.9829521239,Set,2017_03_17_1604,
4,"[2.63, 2.63]",1,22,62,23,,,,,2,0,2,0,down,0.242163248227,as,m,26,59.9829521239,Set,2017_03_17_1604,
4,"[2.63, 2.63]",1,22,62,23,,,,,3,0,3,0,down,0.242128511203,as,m,26,59.9829521239,Set,2017_03_17_1604,
3,"[2.63, 2.63]",1,23,63,22,,,,,0,0,0,0,down,0.408784125179,as,m,26,59.9829521239,Set,2017_03_17_1604,
3,"[2.63, 2.63]",1,23,63,22,,,,,1,0,1,0,down,0.192102458434,as,m,26,59.9829521239,Set,2017_03_17_1604,
6,"[2.63, 2.63]",1,24,64,25,,,,,0,0,0,0,down,0.475455923452,as,m,26,59.9829521239,Set,2017_03_17_1604,
6,"[2.63, 2.63]",1,24,64,25,,,,,1,0,1,0,down,0.40880978321,as,m,26,59.9829521239,Set,2017_03_17_1604,
6,"[2.63, 2.63]",1,24,64,25,,,,,2,0,2,0,left,0.275471713009,as,m,26,59.9829521239,Set,2017_03_17_1604,
6,"[2.63, 2.63]",1,24,64,25,,,,,3,0,3,0,down,0.308817677988,as,m,26,59.9829521239,Set,2017_03_17_1604,
6,"[2.63, 2.63]",1,24,64,25,,,,,4,0,4,0,left,0.208779388312,as,m,26,59.9829521239,Set,2017_03_17_1604,
6,"[2.63, 2.63]",1,24,64,25,,,,,5,0,5,0,left,0.200225001184,as,m,26,59.9829521239,Set,2017_03_17_1604,
6,"[2.63, 2.63]",1,24,64,25,,,,,6,0,6,0,down,0.158783730441,as,m,26,59.9829521239,Set,2017_03_17_1604,
6,"[2.63, 2.63]",1,24,64,25,,,,,7,0,7,0,left,0.27544960763,as,m,26,59.9829521239,Set,2017_03_17_1604,
6,"[2.63, 2.63]",1,24,64,25,,,,,8,0,8,0,left,0.275459081364,as,m,26,59.9829521239,Set,2017_03_17_1604,
6,"[2.63, 2.63]",1,24,64,25,,,,,9,0,9,0,left,0.292107984779,as,m,26,59.9829521239,Set,2017_03_17_1604,
6,"[2.63, 2.63]",1,24,64,25,,,,,10,0,10,0,left,0.308801493692,as,m,26,59.9829521239,Set,2017_03_17_1604,
6,"[2.63, 2.63]",1,24,64,25,,,,,11,0,11,0,left,0.325460265581,as,m,26,59.9829521239,Set,2017_03_17_1604,
6,"[2.63, 2.63]",1,24,64,25,,,,,12,0,12,0,left,0.275427896989,as,m,26,59.9829521239,Set,2017_03_17_1604,
6,"[2.63, 2.63]",1,24,64,25,,,,,13,0,13,0,left,0.208786888352,as,m,26,59.9829521239,Set,2017_03_17_1604,
6,"[2.63, 2.63]",1,24,64,25,,,,,14,0,14,0,down,0.225450397107,as,m,26,59.9829521239,Set,2017_03_17_1604,
6,"[2.63, 2.63]",1,24,64,25,,,,,15,0,15,0,down,0.108767546145,as,m,26,59.9829521239,Set,2017_03_17_1604,
3,"[2.67, 2.67]",1,25,65,32,,,,,0,0,0,0,left,0.792154563972,as,m,26,59.9829521239,Set,2017_03_17_1604,
3,"[2.67, 2.67]",1,25,65,32,,,,,1,0,1,0,left,0.258778204096,as,m,26,59.9829521239,Set,2017_03_17_1604,
3,"[2.67, 2.67]",1,25,65,32,,,,,2,0,2,0,left,0.325460660319,as,m,26,59.9829521239,Set,2017_03_17_1604,
3,"[2.67, 2.67]",1,25,65,32,,,,,3,0,3,0,left,0.342121011163,as,m,26,59.9829521239,Set,2017_03_17_1604,
3,"[2.67, 2.67]",1,25,65,32,,,,,4,0,4,0,down,0.400218685361,as,m,26,59.9829521239,Set,2017_03_17_1604,
3,"[2.67, 2.67]",1,25,65,32,,,,,5,0,5,0,left,0.142130090158,as,m,26,59.9829521239,Set,2017_03_17_1604,
3,"[2.67, 2.67]",1,25,65,32,,,,,6,0,6,0,left,0.258831099111,as,m,26,59.9829521239,Set,2017_03_17_1604,
3,"[2.67, 2.67]",1,25,65,32,,,,,7,0,7,0,left,0.292130484897,as,m,26,59.9829521239,Set,2017_03_17_1604,
3,"[2.67, 2.67]",1,25,65,32,,,,,8,0,8,0,down,0.242111537429,as,m,26,59.9829521239,Set,2017_03_17_1604,
3,"[2.67, 2.67]",1,25,65,32,,,,,9,0,9,0,down,0.0254535550184,as,m,26,59.9829521239,Set,2017_03_17_1604,
7,"[2.63, 2.63]",1,26,66,26,,,,,0,0,0,0,right,0.450254211864,as,m,26,59.9829521239,Set,2017_03_17_1604,
7,"[2.63, 2.63]",1,26,66,26,,,,,1,0,1,0,right,0.292127721725,as,m,26,59.9829521239,Set,2017_03_17_1604,
7,"[2.63, 2.63]",1,26,66,26,,,,,2,0,2,0,left,0.275440528634,as,m,26,59.9829521239,Set,2017_03_17_1604,
7,"[2.63, 2.63]",1,26,66,26,,,,,3,0,3,0,down,0.158783335702,as,m,26,59.9829521239,Set,2017_03_17_1604,
7,"[2.63, 2.63]",1,26,66,26,,,,,4,0,4,0,down,0.0921123269072,as,m,26,59.9829521239,Set,2017_03_17_1604,
3,"[2.6, 2.6]",1,27,67,2,,,,,0,0,0,0,left,0.758789651525,as,m,26,59.9829521239,Set,2017_03_17_1604,
3,"[2.6, 2.6]",1,27,67,2,,,,,1,0,1,0,down,0.34215495871,as,m,26,59.9829521239,Set,2017_03_17_1604,
3,"[2.6, 2.6]",1,27,67,2,,,,,2,0,2,0,down,0.292133642808,as,m,26,59.9829521239,Set,2017_03_17_1604,
3,"[2.7, 2.7]",1,28,68,12,,,,,0,0,0,0,left,0.600251053953,as,m,26,59.9829521239,Set,2017_03_17_1604,
3,"[2.7, 2.7]",1,28,68,12,,,,,1,0,1,0,left,0.242103642651,as,m,26,59.9829521239,Set,2017_03_17_1604,
3,"[2.7, 2.7]",1,28,68,12,,,,,2,0,2,0,down,0.242122590119,as,m,26,59.9829521239,Set,2017_03_17_1604,
3,"[2.7, 2.7]",1,28,68,12,,,,,3,0,3,0,down,0.275474476181,as,m,26,59.9829521239,Set,2017_03_17_1604,
7,"[2.7, 2.7]",1,29,69,16,,,,,0,0,0,0,left,0.650233290701,as,m,26,59.9829521239,Set,2017_03_17_1604,
7,"[2.7, 2.7]",1,29,69,16,,,,,1,0,1,0,left,0.408781362007,as,m,26,59.9829521239,Set,2017_03_17_1604,
7,"[2.7, 2.7]",1,29,69,16,,,,,2,0,2,0,left,0.308795572608,as,m,26,59.9829521239,Set,2017_03_17_1604,
7,"[2.7, 2.7]",1,29,69,16,,,,,3,0,3,0,down,0.52544960763,as,m,26,59.9829521239,Set,2017_03_17_1604,
7,"[2.7, 2.7]",1,29,69,16,,,,,4,0,4,0,down,0.42541289691,as,m,26,59.9829521239,Set,2017_03_17_1604,
6,"[2.67, 2.67]",1,30,70,35,,,,,0,0,0,0,left,0.825470528792,as,m,26,59.9829521239,Set,2017_03_17_1604,
6,"[2.67, 2.67]",1,30,70,35,,,,,1,0,1,0,left,0.308787283091,as,m,26,59.9829521239,Set,2017_03_17_1604,
6,"[2.67, 2.67]",1,30,70,35,,,,,2,0,2,0,left,0.375453160279,as,m,26,59.9829521239,Set,2017_03_17_1604,
6,"[2.67, 2.67]",1,30,70,35,,,,,3,0,3,0,down,0.375473291965,as,m,26,59.9829521239,Set,2017_03_17_1604,
6,"[2.67, 2.67]",1,30,70,35,,,,,4,0,4,0,right,0.308773467229,as,m,26,59.9829521239,Set,2017_03_17_1604,
6,"[2.67, 2.67]",1,30,70,35,,,,,5,0,5,0,left,0.27531065953,as,m,26,59.9829521239,Set,2017_03_17_1604,
6,"[2.67, 2.67]",1,30,70,35,,,,,6,0,6,0,down,0.275464212969,as,m,26,59.9829521239,Set,2017_03_17_1604,
6,"[2.67, 2.67]",1,30,70,35,,,,,7,0,7,0,down,0.192139958631,as,m,26,59.9829521239,Set,2017_03_17_1604,
2,"[2.67, 2.67]",1,31,71,31,,,,,0,0,0,0,down,0.608756493455,as,m,26,59.9829521239,Set,2017_03_17_1604,
2,"[2.67, 2.67]",1,31,71,31,,,,,1,0,1,0,down,0.392129300681,as,m,26,59.9829521239,Set,2017_03_17_1604,
8,"[2.63, 2.63]",1,32,72,27,,,,,0,0,0,0,down,0.308823993811,as,m,26,59.9829521239,Set,2017_03_17_1604,
8,"[2.63, 2.63]",1,32,72,27,,,,,1,0,1,0,left,0.525462239275,as,m,26,59.9829521239,Set,2017_03_17_1604,
8,"[2.63, 2.63]",1,32,72,27,,,,,2,0,2,0,left,0.308821625377,as,m,26,59.9829521239,Set,2017_03_17_1604,
8,"[2.63, 2.63]",1,32,72,27,,,,,3,0,3,0,down,0.29212930068,as,m,26,59.9829521239,Set,2017_03_17_1604,
8,"[2.63, 2.63]",1,32,72,27,,,,,4,0,4,0,down,0.242164432444,as,m,26,59.9829521239,Set,2017_03_17_1604,
4,"[2.7, 2.7]",1,33,73,13,,,,,0,0,0,0,down,0.558777019879,as,m,26,59.9829521239,Set,2017_03_17_1604,
4,"[2.7, 2.7]",1,33,73,13,,,,,1,0,1,0,down,0.458775440924,as,m,26,59.9829521239,Set,2017_03_17_1604,
4,"[2.7, 2.7]",1,33,73,13,,,,,2,0,2,0,left,0.442128511203,as,m,26,59.9829521239,Set,2017_03_17_1604,
4,"[2.7, 2.7]",1,33,73,13,,,,,3,0,3,0,left,0.325462239275,as,m,26,59.9829521239,Set,2017_03_17_1604,
4,"[2.7, 2.7]",1,33,73,13,,,,,4,0,4,0,left,0.475548292359,as,m,26,59.9829521239,Set,2017_03_17_1604,
4,"[2.7, 2.7]",1,33,73,13,,,,,5,0,5,0,left,0.342153379755,as,m,26,59.9829521239,Set,2017_03_17_1604,
4,"[2.7, 2.7]",1,33,73,13,,,,,6,0,6,0,left,0.342120616424,as,m,26,59.9829521239,Set,2017_03_17_1604,
4,"[2.7, 2.7]",1,33,73,13,,,,,7,0,7,0,left,0.575468160359,as,m,26,59.9829521239,Set,2017_03_17_1604,
4,"[2.7, 2.7]",1,33,73,13,,,,,8,0,8,0,down,0.442146669193,as,m,26,59.9829521239,Set,2017_03_17_1604,
4,"[2.7, 2.7]",1,33,73,13,,,,,9,0,9,0,down,0.242126932247,as,m,26,59.9829521239,Set,2017_03_17_1604,
7,"[2.67, 2.67]",1,34,74,36,,,,,0,0,0,0,left,0.875470528792,as,m,26,59.9829521239,Set,2017_03_17_1604,
7,"[2.67, 2.67]",1,34,74,36,,,,,1,0,1,0,left,0.67544921289,as,m,26,59.9829521239,Set,2017_03_17_1604,
7,"[2.67, 2.67]",1,34,74,36,,,,,2,0,2,0,left,0.425481581482,as,m,26,59.9829521239,Set,2017_03_17_1604,
7,"[2.67, 2.67]",1,34,74,36,,,,,3,0,3,0,left,0.592164432444,as,m,26,59.9829521239,Set,2017_03_17_1604,
7,"[2.67, 2.67]",1,34,74,36,,,,,4,0,4,0,right,0.308790046263,as,m,26,59.9829521239,Set,2017_03_17_1604,
7,"[2.67, 2.67]",1,34,74,36,,,,,5,0,5,0,down,0.725440923373,as,m,26,59.9829521239,Set,2017_03_17_1604,
7,"[2.67, 2.67]",1,34,74,36,,,,,6,0,6,0,left,0.808898599466,as,m,26,59.9829521239,Set,2017_03_17_1604,
7,"[2.67, 2.67]",1,34,74,36,,,,,7,0,7,0,down,0.458773861968,as,m,26,59.9829521239,Set,2017_03_17_1604,
7,"[2.67, 2.67]",1,34,74,36,,,,,8,0,8,0,down,0.325441318113,as,m,26,59.9829521239,Set,2017_03_17_1604,
2,"[2.6, 2.6]",1,35,75,1,,,,,0,0,0,0,left,0.350229343312,as,m,26,59.9829521239,Set,2017_03_17_1604,
2,"[2.6, 2.6]",1,35,75,1,,,,,1,0,1,0,left,0.375452370802,as,m,26,59.9829521239,Set,2017_03_17_1604,
2,"[2.6, 2.6]",1,35,75,1,,,,,2,0,2,0,right,0.442091800483,as,m,26,59.9829521239,Set,2017_03_17_1604,
2,"[2.6, 2.6]",1,35,75,1,,,,,3,0,3,0,left,0.508756888194,as,m,26,59.9829521239,Set,2017_03_17_1604,
2,"[2.6, 2.6]",1,35,75,1,,,,,4,0,4,0,left,0.392064563498,as,m,26,59.9829521239,Set,2017_03_17_1604,
2,"[2.6, 2.6]",1,35,75,1,,,,,5,0,5,0,right,0.392121011163,as,m,26,59.9829521239,Set,2017_03_17_1604,
2,"[2.6, 2.6]",1,35,75,1,,,,,6,0,6,0,left,0.94210009,as,m,26,59.9829521239,Set,2017_03_17_1604,
2,"[2.6, 2.6]",1,35,75,1,,,,,7,0,7,0,left,0.475421186427,as,m,26,59.9829521239,Set,2017_03_17_1604,
2,"[2.6, 2.6]",1,35,75,1,,,,,8,0,8,0,down,0.658786888352,as,m,26,59.9829521239,Set,2017_03_17_1604,
2,"[2.6, 2.6]",1,35,75,1,,,,,9,0,9,0,left,0.425576318823,as,m,26,59.9829521239,Set,2017_03_17_1604,
2,"[2.6, 2.6]",1,35,75,1,,,,,10,0,10,0,left,0.458728861731,as,m,26,59.9829521239,Set,2017_03_17_1604,
2,"[2.6, 2.6]",1,35,75,1,,,,,11,0,11,0,left,0.47548237096,as,m,26,59.9829521239,Set,2017_03_17_1604,
2,"[2.6, 2.6]",1,35,75,1,,,,,12,0,12,0,down,0.525454344497,as,m,26,59.9829521239,Set,2017_03_17_1604,
2,"[2.6, 2.6]",1,35,75,1,,,,,13,0,13,0,down,0.342113905863,as,m,26,59.9829521239,Set,2017_03_17_1604,
5,"[2.6, 2.6]",1,36,76,4,,,,,0,0,0,0,left,0.533560308212,as,m,26,59.9829521239,Set,2017_03_17_1604,
5,"[2.6, 2.6]",1,36,76,4,,,,,1,0,1,0,left,0.375474081442,as,m,26,59.9829521239,Set,2017_03_17_1604,
5,"[2.6, 2.6]",1,36,76,4,,,,,2,0,2,0,left,0.325450002368,as,m,26,59.9829521239,Set,2017_03_17_1604,
5,"[2.6, 2.6]",1,36,76,4,,,,,3,0,3,0,left,0.308780572529,as,m,26,59.9829521239,Set,2017_03_17_1604,
5,"[2.6, 2.6]",1,36,76,4,,,,,4,0,4,0,left,0.225468160359,as,m,26,59.9829521239,Set,2017_03_17_1604,
5,"[2.6, 2.6]",1,36,76,4,,,,,5,0,5,0,left,0.292138379676,as,m,26,59.9829521239,Set,2017_03_17_1604,
5,"[2.6, 2.6]",1,36,76,4,,,,,6,0,6,0,down,0.408794783131,as,m,26,59.9829521239,Set,2017_03_17_1604,
5,"[2.6, 2.6]",1,36,76,4,,,,,7,0,7,0,down,0.35881688851,as,m,26,59.9829521239,Set,2017_03_17_1604,
5,"[2.6, 2.6]",1,36,76,4,,,,,8,0,8,0,left,0.283574518813,as,m,26,59.9829521239,Set,2017_03_17_1604,
5,"[2.6, 2.6]",1,36,76,4,,,,,9,0,9,0,left,0.275521450113,as,m,26,59.9829521239,Set,2017_03_17_1604,
5,"[2.6, 2.6]",1,36,76,4,,,,,10,0,10,0,left,0.292119826946,as,m,26,59.9829521239,Set,2017_03_17_1604,
5,"[2.6, 2.6]",1,36,76,4,,,,,11,0,11,0,left,0.275336712299,as,m,26,59.9829521239,Set,2017_03_17_1604,
5,"[2.6, 2.6]",1,36,76,4,,,,,12,0,12,0,left,0.258820046422,as,m,26,59.9829521239,Set,2017_03_17_1604,
5,"[2.6, 2.6]",1,36,76,4,,,,,13,0,13,0,left,0.258845309712,as,m,26,59.9829521239,Set,2017_03_17_1604,
5,"[2.6, 2.6]",1,36,76,4,,,,,14,0,14,0,left,0.275453555018,as,m,26,59.9829521239,Set,2017_03_17_1604,
5,"[2.6, 2.6]",1,36,76,4,,,,,15,0,15,0,down,0.34220982742,as,m,26,59.9829521239,Set,2017_03_17_1604,
5,"[2.6, 2.6]",1,36,76,4,,,,,16,0,16,0,down,0.17544566024,as,m,26,59.9829521239,Set,2017_03_17_1604,
6,"[2.6, 2.6]",1,37,77,5,,,,,0,0,0,0,down,0.733587939937,as,m,26,59.9829521239,Set,2017_03_17_1604,
6,"[2.6, 2.6]",1,37,77,5,,,,,1,0,1,0,down,0.408821625377,as,m,26,59.9829521239,Set,2017_03_17_1604,
10,"[2.6, 2.6]",1,38,78,9,,,,,0,0,0,0,left,0.675452765541,as,m,26,59.9829521239,Set,2017_03_17_1604,
10,"[2.6, 2.6]",1,38,78,9,,,,,1,0,1,0,left,0.242119826946,as,m,26,59.9829521239,Set,2017_03_17_1604,
10,"[2.6, 2.6]",1,38,78,9,,,,,2,0,2,0,left,0.325569608261,as,m,26,59.9829521239,Set,2017_03_17_1604,
10,"[2.6, 2.6]",1,38,78,9,,,,,3,0,3,0,down,0.175477634093,as,m,26,59.9829521239,Set,2017_03_17_1604,
10,"[2.6, 2.6]",1,38,78,9,,,,,4,0,4,0,left,0.175467370881,as,m,26,59.9829521239,Set,2017_03_17_1604,
10,"[2.6, 2.6]",1,38,78,9,,,,,5,0,5,0,down,0.108841757062,as,m,26,59.9829521239,Set,2017_03_17_1604,
10,"[2.6, 2.6]",1,38,78,9,,,,,6,0,6,0,left,0.258782151485,as,m,26,59.9829521239,Set,2017_03_17_1604,
10,"[2.6, 2.6]",1,38,78,9,,,,,7,0,7,0,down,0.242115879557,as,m,26,59.9829521239,Set,2017_03_17_1604,
10,"[2.6, 2.6]",1,38,78,9,,,,,8,0,8,0,down,0.0754421075903,as,m,26,59.9829521239,Set,2017_03_17_1604,
1,"[2.6, 2.6]",1,39,79,0,,,,,0,0,0,0,left,0.458919915368,as,m,26,59.9829521239,Set,2017_03_17_1604,
1,"[2.6, 2.6]",1,39,79,0,,,,,1,0,1,0,left,0.242099695262,as,m,26,59.9829521239,Set,2017_03_17_1604,
1,"[2.6, 2.6]",1,39,79,0,,,,,2,0,2,0,left,0.308772677751,as,m,26,59.9829521239,Set,2017_03_17_1604,
1,"[2.6, 2.6]",1,39,79,0,,,,,3,0,3,0,down,0.275462239275,as,m,26,59.9829521239,Set,2017_03_17_1604,
1,"[2.6, 2.6]",1,39,79,0,,,,,4,0,4,0,down,0.27546776562,as,m,26,59.9829521239,Set,2017_03_17_1604,
5,"[2.63, 2.63]",2,0,80,24,,,,,0,0,0,0,down,0.658776230401,as,m,26,59.9829521239,Set,2017_03_17_1604,
5,"[2.63, 2.63]",2,0,80,24,,,,,1,0,1,0,down,0.475290133106,as,m,26,59.9829521239,Set,2017_03_17_1604,
1,"[2.63, 2.63]",2,1,81,20,,,,,0,0,0,0,left,0.542147063932,as,m,26,59.9829521239,Set,2017_03_17_1604,
1,"[2.63, 2.63]",2,1,81,20,,,,,1,0,1,0,left,0.392091800483,as,m,26,59.9829521239,Set,2017_03_17_1604,
1,"[2.63, 2.63]",2,1,81,20,,,,,2,0,2,0,left,0.392098905784,as,m,26,59.9829521239,Set,2017_03_17_1604,
1,"[2.63, 2.63]",2,1,81,20,,,,,3,0,3,0,left,0.392104432128,as,m,26,59.9829521239,Set,2017_03_17_1604,
1,"[2.63, 2.63]",2,1,81,20,,,,,4,0,4,0,down,0.308808204254,as,m,26,59.9829521239,Set,2017_03_17_1604,
1,"[2.63, 2.63]",2,1,81,20,,,,,5,0,5,0,down,0.225507239512,as,m,26,59.9829521239,Set,2017_03_17_1604,
5,"[2.6, 2.6]",2,2,82,4,,,,,0,0,0,0,down,0.325465397187,as,m,26,59.9829521239,Set,2017_03_17_1604,
5,"[2.6, 2.6]",2,2,82,4,,,,,1,0,1,0,left,0.558785704135,as,m,26,59.9829521239,Set,2017_03_17_1604,
5,"[2.6, 2.6]",2,2,82,4,,,,,2,0,2,0,down,0.225456318191,as,m,26,59.9829521239,Set,2017_03_17_1604,
5,"[2.6, 2.6]",2,2,82,4,,,,,3,0,3,0,down,0.24213324807,as,m,26,59.9829521239,Set,2017_03_17_1604,
2,"[2.67, 2.67]",2,3,83,31,,,,,0,0,0,0,left,0.600232895963,as,m,26,59.9829521239,Set,2017_03_17_1604,
2,"[2.67, 2.67]",2,3,83,31,,,,,1,0,1,0,left,0.325463423492,as,m,26,59.9829521239,Set,2017_03_17_1604,
2,"[2.67, 2.67]",2,3,83,31,,,,,2,0,2,0,right,0.242120616424,as,m,26,59.9829521239,Set,2017_03_17_1604,
2,"[2.67, 2.67]",2,3,83,31,,,,,3,0,3,0,right,0.208789256786,as,m,26,59.9829521239,Set,2017_03_17_1604,
2,"[2.67, 2.67]",2,3,83,31,,,,,4,0,4,0,left,0.292141537587,as,m,26,59.9829521239,Set,2017_03_17_1604,
2,"[2.67, 2.67]",2,3,83,31,,,,,5,0,5,0,right,0.275500923689,as,m,26,59.9829521239,Set,2017_03_17_1604,
2,"[2.67, 2.67]",2,3,83,31,,,,,6,0,6,0,left,0.225523029068,as,m,26,59.9829521239,Set,2017_03_17_1604,
2,"[2.67, 2.67]",2,3,83,31,,,,,7,0,7,0,down,0.208774651445,as,m,26,59.9829521239,Set,2017_03_17_1604,
2,"[2.67, 2.67]",2,3,83,31,,,,,8,0,8,0,down,0.0921099584734,as,m,26,59.9829521239,Set,2017_03_17_1604,
1,"[2.67, 2.67]",2,4,84,30,,,,,0,0,0,0,right,0.82548592361,as,m,26,59.9829521239,Set,2017_03_17_1604,
1,"[2.67, 2.67]",2,4,84,30,,,,,1,0,1,0,down,0.325458686625,as,m,26,59.9829521239,Set,2017_03_17_1604,
1,"[2.67, 2.67]",2,4,84,30,,,,,2,0,2,0,left,0.592095747872,as,m,26,59.9829521239,Set,2017_03_17_1604,
1,"[2.67, 2.67]",2,4,84,30,,,,,3,0,3,0,down,0.308818467466,as,m,26,59.9829521239,Set,2017_03_17_1604,
1,"[2.67, 2.67]",2,4,84,30,,,,,4,0,4,0,down,0.192120221685,as,m,26,59.9829521239,Set,2017_03_17_1604,
6,"[2.63, 2.63]",2,5,85,25,,,,,0,0,0,0,right,0.475457897147,as,m,26,59.9829521239,Set,2017_03_17_1604,
6,"[2.63, 2.63]",2,5,85,25,,,,,1,0,1,0,right,0.558811756904,as,m,26,59.9829521239,Set,2017_03_17_1604,
6,"[2.63, 2.63]",2,5,85,25,,,,,2,0,2,0,right,0.358818072727,as,m,26,59.9829521239,Set,2017_03_17_1604,
6,"[2.63, 2.63]",2,5,85,25,,,,,3,0,3,0,right,0.442137590198,as,m,26,59.9829521239,Set,2017_03_17_1604,
6,"[2.63, 2.63]",2,5,85,25,,,,,4,0,4,0,down,0.375529739631,as,m,26,59.9829521239,Set,2017_03_17_1604,
6,"[2.63, 2.63]",2,5,85,25,,,,,5,0,5,0,down,0.125475660398,as,m,26,59.9829521239,Set,2017_03_17_1604,
7,"[2.67, 2.67]",2,6,86,36,,,,,0,0,0,0,down,0.400220264317,as,m,26,59.9829521239,Set,2017_03_17_1604,
7,"[2.67, 2.67]",2,6,86,36,,,,,1,0,1,0,down,0.225440923373,as,m,26,59.9829521239,Set,2017_03_17_1604,
7,"[2.67, 2.67]",2,6,86,36,,,,,2,0,2,0,right,0.658782940963,as,m,26,59.9829521239,Set,2017_03_17_1604,
7,"[2.67, 2.67]",2,6,86,36,,,,,3,0,3,0,left,0.366926010137,as,m,26,59.9829521239,Set,2017_03_17_1604,
7,"[2.67, 2.67]",2,6,86,36,,,,,4,0,4,0,down,0.300282633067,as,m,26,59.9829521239,Set,2017_03_17_1604,
7,"[2.67, 2.67]",2,6,86,36,,,,,5,0,5,0,down,0.208799125259,as,m,26,59.9829521239,Set,2017_03_17_1604,
8,"[2.7, 2.7]",2,7,87,17,,,,,0,0,0,0,down,0.766903510018,as,m,26,59.9829521239,Set,2017_03_17_1604,
8,"[2.7, 2.7]",2,7,87,17,,,,,1,0,1,0,down,0.642156537666,as,m,26,59.9829521239,Set,2017_03_17_1604,
8,"[2.7, 2.7]",2,7,87,17,,,,,2,0,2,0,left,0.44210048474,as,m,26,59.9829521239,Set,2017_03_17_1604,
8,"[2.7, 2.7]",2,7,87,17,,,,,3,0,3,0,down,0.358788072569,as,m,26,59.9829521239,Set,2017_03_17_1604,
8,"[2.7, 2.7]",2,7,87,17,,,,,4,0,4,0,down,0.508771098795,as,m,26,59.9829521239,Set,2017_03_17_1604,
8,"[2.7, 2.7]",2,7,87,17,,,,,5,0,5,0,left,0.458793993653,as,m,26,59.9829521239,Set,2017_03_17_1604,
8,"[2.7, 2.7]",2,7,87,17,,,,,6,0,6,0,left,0.508788467308,as,m,26,59.9829521239,Set,2017_03_17_1604,
8,"[2.7, 2.7]",2,7,87,17,,,,,7,0,7,0,left,0.392120221685,as,m,26,59.9829521239,Set,2017_03_17_1604,
8,"[2.7, 2.7]",2,7,87,17,,,,,8,0,8,0,left,0.375458686625,as,m,26,59.9829521239,Set,2017_03_17_1604,
8,"[2.7, 2.7]",2,7,87,17,,,,,9,0,9,0,down,0.458775835662,as,m,26,59.9829521239,Set,2017_03_17_1604,
8,"[2.7, 2.7]",2,7,87,17,,,,,10,0,10,0,down,0.242073642493,as,m,26,59.9829521239,Set,2017_03_17_1604,
1,"[2.7, 2.7]",2,8,88,10,,,,,0,0,0,0,left,0.992092195222,as,m,26,59.9829521239,Set,2017_03_17_1604,
1,"[2.7, 2.7]",2,8,88,10,,,,,1,0,1,0,right,0.292154563972,as,m,26,59.9829521239,Set,2017_03_17_1604,
1,"[2.7, 2.7]",2,8,88,10,,,,,2,0,2,0,left,0.258772677751,as,m,26,59.9829521239,Set,2017_03_17_1604,
1,"[2.7, 2.7]",2,8,88,10,,,,,3,0,3,0,left,0.458793598914,as,m,26,59.9829521239,Set,2017_03_17_1604,
1,"[2.7, 2.7]",2,8,88,10,,,,,4,0,4,0,left,0.275442897068,as,m,26,59.9829521239,Set,2017_03_17_1604,
1,"[2.7, 2.7]",2,8,88,10,,,,,5,0,5,0,left,0.29212219538,as,m,26,59.9829521239,Set,2017_03_17_1604,
1,"[2.7, 2.7]",2,8,88,10,,,,,6,0,6,0,left,0.283577676725,as,m,26,59.9829521239,Set,2017_03_17_1604,
1,"[2.7, 2.7]",2,8,88,10,,,,,7,0,7,0,left,0.308778993573,as,m,26,59.9829521239,Set,2017_03_17_1604,
1,"[2.7, 2.7]",2,8,88,10,,,,,8,0,8,0,right,0.275458686624,as,m,26,59.9829521239,Set,2017_03_17_1604,
1,"[2.7, 2.7]",2,8,88,10,,,,,9,0,9,0,left,0.258797151564,as,m,26,59.9829521239,Set,2017_03_17_1604,
1,"[2.7, 2.7]",2,8,88,10,,,,,10,0,10,0,left,0.225474476182,as,m,26,59.9829521239,Set,2017_03_17_1604,
1,"[2.7, 2.7]",2,8,88,10,,,,,11,0,11,0,left,0.34211864273,as,m,26,59.9829521239,Set,2017_03_17_1604,
1,"[2.7, 2.7]",2,8,88,10,,,,,12,0,12,0,down,0.508868204569,as,m,26,59.9829521239,Set,2017_03_17_1604,
1,"[2.7, 2.7]",2,8,88,10,,,,,13,0,13,0,down,0.208786888352,as,m,26,59.9829521239,Set,2017_03_17_1604,
2,"[2.63, 2.63]",2,9,89,21,,,,,0,0,0,0,down,0.842128511203,as,m,26,59.9829521239,Set,2017_03_17_1604,
2,"[2.63, 2.63]",2,9,89,21,,,,,1,0,1,0,down,0.342134827026,as,m,26,59.9829521239,Set,2017_03_17_1604,
2,"[2.63, 2.63]",2,9,89,21,,,,,2,0,2,0,left,0.475464212969,as,m,26,59.9829521239,Set,2017_03_17_1604,
2,"[2.63, 2.63]",2,9,89,21,,,,,3,0,3,0,left,0.292140748109,as,m,26,59.9829521239,Set,2017_03_17_1604,
2,"[2.63, 2.63]",2,9,89,21,,,,,4,0,4,0,left,0.292132853331,as,m,26,59.9829521239,Set,2017_03_17_1604,
2,"[2.63, 2.63]",2,9,89,21,,,,,5,0,5,0,left,0.342147458671,as,m,26,59.9829521239,Set,2017_03_17_1604,
2,"[2.63, 2.63]",2,9,89,21,,,,,6,0,6,0,down,0.275446844457,as,m,26,59.9829521239,Set,2017_03_17_1604,
2,"[2.63, 2.63]",2,9,89,21,,,,,7,0,7,0,left,0.408790046263,as,m,26,59.9829521239,Set,2017_03_17_1604,
2,"[2.63, 2.63]",2,9,89,21,,,,,8,0,8,0,left,0.308780177791,as,m,26,59.9829521239,Set,2017_03_17_1604,
2,"[2.63, 2.63]",2,9,89,21,,,,,9,0,9,0,down,0.225463423491,as,m,26,59.9829521239,Set,2017_03_17_1604,
2,"[2.63, 2.63]",2,9,89,21,,,,,10,0,10,0,left,0.483574124074,as,m,26,59.9829521239,Set,2017_03_17_1604,
2,"[2.63, 2.63]",2,9,89,21,,,,,11,0,11,0,left,0.208778993574,as,m,26,59.9829521239,Set,2017_03_17_1604,
2,"[2.63, 2.63]",2,9,89,21,,,,,12,0,12,0,down,0.29211864273,as,m,26,59.9829521239,Set,2017_03_17_1604,
2,"[2.63, 2.63]",2,9,89,21,,,,,13,0,13,0,down,0.150230527529,as,m,26,59.9829521239,Set,2017_03_17_1604,
2,"[2.6, 2.6]",2,10,90,1,,,,,0,0,0,0,left,0.700236843352,as,m,26,59.9829521239,Set,2017_03_17_1604,
2,"[2.6, 2.6]",2,10,90,1,,,,,1,0,1,0,down,0.458667282459,as,m,26,59.9829521239,Set,2017_03_17_1604,
2,"[2.6, 2.6]",2,10,90,1,,,,,2,0,2,0,down,0.258803862125,as,m,26,59.9829521239,Set,2017_03_17_1604,
3,"[2.7, 2.7]",2,11,91,12,,,,,0,0,0,0,down,1.00023486966,as,m,26,59.9829521239,Set,2017_03_17_1604,
3,"[2.7, 2.7]",2,11,91,12,,,,,1,0,1,0,down,0.225509607945,as,m,26,59.9829521239,Set,2017_03_17_1604,
10,"[2.6, 2.6]",2,12,92,9,,,,,0,0,0,0,down,0.383581624114,as,m,26,59.9829521239,Set,2017_03_17_1604,
10,"[2.6, 2.6]",2,12,92,9,,,,,1,0,1,0,down,0.392116669035,as,m,26,59.9829521239,Set,2017_03_17_1604,
10,"[2.6, 2.6]",2,12,92,9,,,,,2,0,2,0,left,0.34214430076,as,m,26,59.9829521239,Set,2017_03_17_1604,
10,"[2.6, 2.6]",2,12,92,9,,,,,3,0,3,0,down,0.225438160201,as,m,26,59.9829521239,Set,2017_03_17_1604,
10,"[2.6, 2.6]",2,12,92,9,,,,,4,0,4,0,down,0.342115484818,as,m,26,59.9829521239,Set,2017_03_17_1604,
10,"[2.6, 2.6]",2,12,92,9,,,,,5,0,5,0,left,0.308827151722,as,m,26,59.9829521239,Set,2017_03_17_1604,
10,"[2.6, 2.6]",2,12,92,9,,,,,6,0,6,0,down,0.375460660319,as,m,26,59.9829521239,Set,2017_03_17_1604,
10,"[2.6, 2.6]",2,12,92,9,,,,,7,0,7,0,left,0.408790046263,as,m,26,59.9829521239,Set,2017_03_17_1604,
10,"[2.6, 2.6]",2,12,92,9,,,,,8,0,8,0,down,0.29211824799,as,m,26,59.9829521239,Set,2017_03_17_1604,
10,"[2.6, 2.6]",2,12,92,9,,,,,9,0,9,0,down,0.292131669114,as,m,26,59.9829521239,Set,2017_03_17_1604,
3,"[2.63, 2.63]",2,13,93,22,,,,,0,0,0,0,left,0.666950878689,as,m,26,59.9829521239,Set,2017_03_17_1604,
3,"[2.63, 2.63]",2,13,93,22,,,,,1,0,1,0,left,0.675437765462,as,m,26,59.9829521239,Set,2017_03_17_1604,
3,"[2.63, 2.63]",2,13,93,22,,,,,2,0,2,0,down,0.342159695577,as,m,26,59.9829521239,Set,2017_03_17_1604,
3,"[2.63, 2.63]",2,13,93,22,,,,,3,0,3,0,down,0.358784914657,as,m,26,59.9829521239,Set,2017_03_17_1604,
3,"[2.63, 2.63]",2,13,93,22,,,,,4,0,4,0,left,0.275445265501,as,m,26,59.9829521239,Set,2017_03_17_1604,
3,"[2.63, 2.63]",2,13,93,22,,,,,5,0,5,0,left,0.192173906179,as,m,26,59.9829521239,Set,2017_03_17_1604,
3,"[2.63, 2.63]",2,13,93,22,,,,,6,0,6,0,down,0.250229738051,as,m,26,59.9829521239,Set,2017_03_17_1604,
3,"[2.63, 2.63]",2,13,93,22,,,,,7,0,7,0,down,0.0921593008384,as,m,26,59.9829521239,Set,2017_03_17_1604,
3,"[2.63, 2.63]",2,13,93,22,,,,,8,0,8,0,left,0.283602545277,as,m,26,59.9829521239,Set,2017_03_17_1604,
3,"[2.63, 2.63]",2,13,93,22,,,,,9,0,9,0,down,0.092130879636,as,m,26,59.9829521239,Set,2017_03_17_1604,
3,"[2.63, 2.63]",2,13,93,22,,,,,10,0,10,0,down,0.208805046343,as,m,26,59.9829521239,Set,2017_03_17_1604,
3,"[2.63, 2.63]",2,13,93,22,,,,,11,0,11,0,left,0.475428686467,as,m,26,59.9829521239,Set,2017_03_17_1604,
3,"[2.63, 2.63]",2,13,93,22,,,,,12,0,12,0,left,0.358783335701,as,m,26,59.9829521239,Set,2017_03_17_1604,
3,"[2.63, 2.63]",2,13,93,22,,,,,13,0,13,0,down,0.225459081363,as,m,26,59.9829521239,Set,2017_03_17_1604,
3,"[2.63, 2.63]",2,13,93,22,,,,,14,0,14,0,down,0.158781756746,as,m,26,59.9829521239,Set,2017_03_17_1604,
3,"[2.63, 2.63]",2,13,93,22,,,,,15,0,15,0,left,0.325517897462,as,m,26,59.9829521239,Set,2017_03_17_1604,
3,"[2.63, 2.63]",2,13,93,22,,,,,16,0,16,0,down,0.242108774257,as,m,26,59.9829521239,Set,2017_03_17_1604,
3,"[2.63, 2.63]",2,13,93,22,,,,,17,0,17,0,down,0.292179827262,as,m,26,59.9829521239,Set,2017_03_17_1604,
3,"[2.63, 2.63]",2,13,93,22,,,,,18,0,18,0,left,0.292099300523,as,m,26,59.9829521239,Set,2017_03_17_1604,
3,"[2.63, 2.63]",2,13,93,22,,,,,19,0,19,0,down,0.158829914894,as,m,26,59.9829521239,Set,2017_03_17_1604,
3,"[2.63, 2.63]",2,13,93,22,,,,,20,0,20,0,down,0.0421545639711,as,m,26,59.9829521239,Set,2017_03_17_1604,
5,"[2.67, 2.67]",2,14,94,34,,,,,0,0,0,0,down,0.625450397108,as,m,26,59.9829521239,Set,2017_03_17_1604,
5,"[2.67, 2.67]",2,14,94,34,,,,,1,0,1,0,down,0.25879123048,as,m,26,59.9829521239,Set,2017_03_17_1604,
6,"[2.6, 2.6]",2,15,95,5,,,,,0,0,0,0,left,0.883724519603,as,m,26,59.9829521239,Set,2017_03_17_1604,
6,"[2.6, 2.6]",2,15,95,5,,,,,1,0,1,0,left,0.425476844615,as,m,26,59.9829521239,Set,2017_03_17_1604,
6,"[2.6, 2.6]",2,15,95,5,,,,,2,0,2,0,left,0.275458291886,as,m,26,59.9829521239,Set,2017_03_17_1604,
6,"[2.6, 2.6]",2,15,95,5,,,,,3,0,3,0,down,0.325454739235,as,m,26,59.9829521239,Set,2017_03_17_1604,
6,"[2.6, 2.6]",2,15,95,5,,,,,4,0,4,0,down,0.158799519998,as,m,26,59.9829521239,Set,2017_03_17_1604,
9,"[2.67, 2.67]",2,16,96,38,,,,,0,0,0,0,down,0.625469739314,as,m,26,59.9829521239,Set,2017_03_17_1604,
9,"[2.67, 2.67]",2,16,96,38,,,,,1,0,1,0,down,0.158814914816,as,m,26,59.9829521239,Set,2017_03_17_1604,
7,"[2.6, 2.6]",2,17,97,6,,,,,0,0,0,0,down,0.858792019958,as,m,26,59.9829521239,Set,2017_03_17_1604,
7,"[2.6, 2.6]",2,17,97,6,,,,,1,0,1,0,down,0.308767151406,as,m,26,59.9829521239,Set,2017_03_17_1604,
4,"[2.63, 2.63]",2,18,98,23,,,,,0,0,0,0,down,1.50020368528,as,m,26,59.9829521239,Set,2017_03_17_1604,
4,"[2.63, 2.63]",2,18,98,23,,,,,1,0,1,0,down,0.450214343233,as,m,26,59.9829521239,Set,2017_03_17_1604,
10,"[2.7, 2.7]",2,19,99,19,,,,,0,0,0,0,left,1.12545829189,as,m,26,59.9829521239,Set,2017_03_17_1604,
10,"[2.7, 2.7]",2,19,99,19,,,,,1,0,1,0,left,0.458821625377,as,m,26,59.9829521239,Set,2017_03_17_1604,
10,"[2.7, 2.7]",2,19,99,19,,,,,2,0,2,0,left,0.525275527766,as,m,26,59.9829521239,Set,2017_03_17_1604,
10,"[2.7, 2.7]",2,19,99,19,,,,,3,0,3,0,down,0.358777019879,as,m,26,59.9829521239,Set,2017_03_17_1604,
10,"[2.7, 2.7]",2,19,99,19,,,,,4,0,4,0,down,0.425457502408,as,m,26,59.9829521239,Set,2017_03_17_1604,
9,"[2.63, 2.63]",2,20,100,28,,,,,0,0,0,0,down,0.508801098953,as,m,26,59.9829521239,Set,2017_03_17_1604,
9,"[2.63, 2.63]",2,20,100,28,,,,,1,0,1,0,right,0.516877851988,as,m,26,59.9829521239,Set,2017_03_17_1604,
9,"[2.63, 2.63]",2,20,100,28,,,,,2,0,2,0,left,0.558804651604,as,m,26,59.9829521239,Set,2017_03_17_1604,
9,"[2.63, 2.63]",2,20,100,28,,,,,3,0,3,0,down,0.308754914499,as,m,26,59.9829521239,Set,2017_03_17_1604,
9,"[2.63, 2.63]",2,20,100,28,,,,,4,0,4,0,down,0.275469344575,as,m,26,59.9829521239,Set,2017_03_17_1604,
4,"[2.7, 2.7]",2,21,101,13,,,,,0,0,0,0,left,0.583589518892,as,m,26,59.9829521239,Set,2017_03_17_1604,
4,"[2.7, 2.7]",2,21,101,13,,,,,1,0,1,0,left,0.342120616425,as,m,26,59.9829521239,Set,2017_03_17_1604,
4,"[2.7, 2.7]",2,21,101,13,,,,,2,0,2,0,down,0.342149432366,as,m,26,59.9829521239,Set,2017_03_17_1604,
4,"[2.7, 2.7]",2,21,101,13,,,,,3,0,3,0,left,0.375473686703,as,m,26,59.9829521239,Set,2017_03_17_1604,
4,"[2.7, 2.7]",2,21,101,13,,,,,4,0,4,0,left,0.425442502329,as,m,26,59.9829521239,Set,2017_03_17_1604,
4,"[2.7, 2.7]",2,21,101,13,,,,,5,0,5,0,down,0.325481186744,as,m,26,59.9829521239,Set,2017_03_17_1604,
4,"[2.7, 2.7]",2,21,101,13,,,,,6,0,6,0,left,0.258833467545,as,m,26,59.9829521239,Set,2017_03_17_1604,
4,"[2.7, 2.7]",2,21,101,13,,,,,7,0,7,0,left,0.308801098953,as,m,26,59.9829521239,Set,2017_03_17_1604,
4,"[2.7, 2.7]",2,21,101,13,,,,,8,0,8,0,down,0.27543144964,as,m,26,59.9829521239,Set,2017_03_17_1604,
4,"[2.7, 2.7]",2,21,101,13,,,,,9,0,9,0,down,0.242111537429,as,m,26,59.9829521239,Set,2017_03_17_1604,
4,"[2.7, 2.7]",2,21,101,13,,,,,10,0,10,0,left,0.175498949994,as,m,26,59.9829521239,Set,2017_03_17_1604,
4,"[2.7, 2.7]",2,21,101,13,,,,,11,0,11,0,left,0.192123774335,as,m,26,59.9829521239,Set,2017_03_17_1604,
4,"[2.7, 2.7]",2,21,101,13,,,,,12,0,12,0,left,0.24220272212,as,m,26,59.9829521239,Set,2017_03_17_1604,
4,"[2.7, 2.7]",2,21,101,13,,,,,13,0,13,0,left,0.241968247202,as,m,26,59.9829521239,Set,2017_03_17_1604,
4,"[2.7, 2.7]",2,21,101,13,,,,,14,0,14,0,left,0.333625440135,as,m,26,59.9829521239,Set,2017_03_17_1604,
4,"[2.7, 2.7]",2,21,101,13,,,,,15,0,15,0,left,0.25883859915,as,m,26,59.9829521239,Set,2017_03_17_1604,
4,"[2.7, 2.7]",2,21,101,13,,,,,16,0,16,0,left,0.292124169075,as,m,26,59.9829521239,Set,2017_03_17_1604,
4,"[2.7, 2.7]",2,21,101,13,,,,,17,0,17,0,left,0.275470528792,as,m,26,59.9829521239,Set,2017_03_17_1604,
4,"[2.7, 2.7]",2,21,101,13,,,,,18,0,18,0,left,0.29212574803,as,m,26,59.9829521239,Set,2017_03_17_1604,
4,"[2.7, 2.7]",2,21,101,13,,,,,19,0,19,0,down,0.47547131827,as,m,26,59.9829521239,Set,2017_03_17_1604,
4,"[2.7, 2.7]",2,21,101,13,,,,,20,0,20,0,down,0.142167195617,as,m,26,59.9829521239,Set,2017_03_17_1604,
4,"[2.7, 2.7]",2,21,101,13,,,,,21,0,21,0,left,0.208786098874,as,m,26,59.9829521239,Set,2017_03_17_1604,
4,"[2.7, 2.7]",2,21,101,13,,,,,22,0,22,0,down,0.142120221685,as,m,26,59.9829521239,Set,2017_03_17_1604,
4,"[2.7, 2.7]",2,21,101,13,,,,,23,0,23,0,down,0.242123774336,as,m,26,59.9829521239,Set,2017_03_17_1604,
4,"[2.7, 2.7]",2,21,101,13,,,,,24,0,24,0,left,0.225479607787,as,m,26,59.9829521239,Set,2017_03_17_1604,
4,"[2.7, 2.7]",2,21,101,13,,,,,25,0,25,0,left,0.258765177711,as,m,26,59.9829521239,Set,2017_03_17_1604,
4,"[2.7, 2.7]",2,21,101,13,,,,,26,0,26,0,left,0.242115484818,as,m,26,59.9829521239,Set,2017_03_17_1604,
4,"[2.7, 2.7]",2,21,101,13,,,,,27,0,27,0,left,0.575380923057,as,m,26,59.9829521239,Set,2017_03_17_1604,
4,"[2.7, 2.7]",2,21,101,13,,,,,28,0,28,0,left,0.392136011242,as,m,26,59.9829521239,Set,2017_03_17_1604,
4,"[2.7, 2.7]",2,21,101,13,,,,,29,0,29,0,left,0.442126932247,as,m,26,59.9829521239,Set,2017_03_17_1604,
4,"[2.7, 2.7]",2,21,101,13,,,,,30,0,30,0,left,0.225470528791,as,m,26,59.9829521239,Set,2017_03_17_1604,
4,"[2.7, 2.7]",2,21,101,13,,,,,31,0,31,0,down,0.308780177791,as,m,26,59.9829521239,Set,2017_03_17_1604,
4,"[2.7, 2.7]",2,21,101,13,,,,,32,0,32,0,left,0.258796756825,as,m,26,59.9829521239,Set,2017_03_17_1604,
4,"[2.7, 2.7]",2,21,101,13,,,,,33,0,33,0,down,0.29212574803,as,m,26,59.9829521239,Set,2017_03_17_1604,
4,"[2.7, 2.7]",2,21,101,13,,,,,34,0,34,0,right,0.225458686625,as,m,26,59.9829521239,Set,2017_03_17_1604,
4,"[2.7, 2.7]",2,21,101,13,,,,,35,0,35,0,left,0.275457107669,as,m,26,59.9829521239,Set,2017_03_17_1604,
4,"[2.7, 2.7]",2,21,101,13,,,,,36,0,36,0,down,0.275452370802,as,m,26,59.9829521239,Set,2017_03_17_1604,
4,"[2.7, 2.7]",2,21,101,13,,,,,37,0,37,0,down,0.16689206259,as,m,26,59.9829521239,Set,2017_03_17_1604,
2,"[2.7, 2.7]",2,22,102,11,,,,,0,0,0,0,down,0.683631361218,as,m,26,59.9829521239,Set,2017_03_17_1604,
2,"[2.7, 2.7]",2,22,102,11,,,,,1,0,1,0,down,0.258787283091,as,m,26,59.9829521239,Set,2017_03_17_1604,
8,"[2.63, 2.63]",2,23,103,27,,,,,0,0,0,0,right,0.392146274454,as,m,26,59.9829521239,Set,2017_03_17_1604,
8,"[2.63, 2.63]",2,23,103,27,,,,,1,0,1,0,left,0.292127326986,as,m,26,59.9829521239,Set,2017_03_17_1604,
8,"[2.63, 2.63]",2,23,103,27,,,,,2,0,2,0,down,0.325425528556,as,m,26,59.9829521239,Set,2017_03_17_1604,
8,"[2.63, 2.63]",2,23,103,27,,,,,3,0,3,0,left,0.225457107669,as,m,26,59.9829521239,Set,2017_03_17_1604,
8,"[2.63, 2.63]",2,23,103,27,,,,,4,0,4,0,right,0.24211864273,as,m,26,59.9829521239,Set,2017_03_17_1604,
8,"[2.63, 2.63]",2,23,103,27,,,,,5,0,5,0,down,0.216913378492,as,m,26,59.9829521239,Set,2017_03_17_1604,
8,"[2.63, 2.63]",2,23,103,27,,,,,6,0,6,0,left,0.24209653735,as,m,26,59.9829521239,Set,2017_03_17_1604,
8,"[2.63, 2.63]",2,23,103,27,,,,,7,0,7,0,down,0.258825572767,as,m,26,59.9829521239,Set,2017_03_17_1604,
8,"[2.63, 2.63]",2,23,103,27,,,,,8,0,8,0,down,0.208799125258,as,m,26,59.9829521239,Set,2017_03_17_1604,
9,"[2.7, 2.7]",2,24,104,18,,,,,0,0,0,0,left,0.575549871315,as,m,26,59.9829521239,Set,2017_03_17_1604,
9,"[2.7, 2.7]",2,24,104,18,,,,,1,0,1,0,left,0.308784519918,as,m,26,59.9829521239,Set,2017_03_17_1604,
9,"[2.7, 2.7]",2,24,104,18,,,,,2,0,2,0,left,0.308771888273,as,m,26,59.9829521239,Set,2017_03_17_1604,
9,"[2.7, 2.7]",2,24,104,18,,,,,3,0,3,0,left,0.292119826946,as,m,26,59.9829521239,Set,2017_03_17_1604,
9,"[2.7, 2.7]",2,24,104,18,,,,,4,0,4,0,down,0.275479607788,as,m,26,59.9829521239,Set,2017_03_17_1604,
9,"[2.7, 2.7]",2,24,104,18,,,,,5,0,5,0,down,0.192138774414,as,m,26,59.9829521239,Set,2017_03_17_1604,
6,"[2.67, 2.67]",2,25,105,35,,,,,0,0,0,0,right,0.975480792004,as,m,26,59.9829521239,Set,2017_03_17_1604,
6,"[2.67, 2.67]",2,25,105,35,,,,,1,0,1,0,left,0.525442897067,as,m,26,59.9829521239,Set,2017_03_17_1604,
6,"[2.67, 2.67]",2,25,105,35,,,,,2,0,2,0,down,0.492196406297,as,m,26,59.9829521239,Set,2017_03_17_1604,
6,"[2.67, 2.67]",2,25,105,35,,,,,3,0,3,0,down,0.392164432445,as,m,26,59.9829521239,Set,2017_03_17_1604,
7,"[2.7, 2.7]",2,26,106,16,,,,,0,0,0,0,left,0.433566624035,as,m,26,59.9829521239,Set,2017_03_17_1604,
7,"[2.7, 2.7]",2,26,106,16,,,,,1,0,1,0,down,0.32546026558,as,m,26,59.9829521239,Set,2017_03_17_1604,
7,"[2.7, 2.7]",2,26,106,16,,,,,2,0,2,0,down,0.242151406061,as,m,26,59.9829521239,Set,2017_03_17_1604,
7,"[2.7, 2.7]",2,26,106,16,,,,,3,0,3,0,left,0.242165221922,as,m,26,59.9829521239,Set,2017_03_17_1604,
7,"[2.7, 2.7]",2,26,106,16,,,,,4,0,4,0,down,0.158785309396,as,m,26,59.9829521239,Set,2017_03_17_1604,
7,"[2.7, 2.7]",2,26,106,16,,,,,5,0,5,0,down,0.158808598992,as,m,26,59.9829521239,Set,2017_03_17_1604,
1,"[2.6, 2.6]",2,27,107,0,,,,,0,0,0,0,down,0.792145879715,as,m,26,59.9829521239,Set,2017_03_17_1604,
1,"[2.6, 2.6]",2,27,107,0,,,,,1,0,1,0,down,0.308803862125,as,m,26,59.9829521239,Set,2017_03_17_1604,
6,"[2.7, 2.7]",2,28,108,15,,,,,0,0,0,0,right,0.742112326907,as,m,26,59.9829521239,Set,2017_03_17_1604,
6,"[2.7, 2.7]",2,28,108,15,,,,,1,0,1,0,right,0.408827151721,as,m,26,59.9829521239,Set,2017_03_17_1604,
6,"[2.7, 2.7]",2,28,108,15,,,,,2,0,2,0,down,0.358782940963,as,m,26,59.9829521239,Set,2017_03_17_1604,
6,"[2.7, 2.7]",2,28,108,15,,,,,3,0,3,0,down,0.275448028674,as,m,26,59.9829521239,Set,2017_03_17_1604,
10,"[2.67, 2.67]",2,29,109,39,,,,,0,0,0,0,right,0.466973773546,as,m,26,59.9829521239,Set,2017_03_17_1604,
10,"[2.67, 2.67]",2,29,109,39,,,,,1,0,1,0,down,0.325392765226,as,m,26,59.9829521239,Set,2017_03_17_1604,
10,"[2.67, 2.67]",2,29,109,39,,,,,2,0,2,0,right,1.14212811646,as,m,26,59.9829521239,Set,2017_03_17_1604,
10,"[2.67, 2.67]",2,29,109,39,,,,,3,0,3,0,down,0.458808598993,as,m,26,59.9829521239,Set,2017_03_17_1604,
10,"[2.67, 2.67]",2,29,109,39,,,,,4,0,4,0,down,0.208792414696,as,m,26,59.9829521239,Set,2017_03_17_1604,
8,"[2.6, 2.6]",2,30,110,7,,,,,0,0,0,0,right,0.358786098875,as,m,26,59.9829521239,Set,2017_03_17_1604,
8,"[2.6, 2.6]",2,30,110,7,,,,,1,0,1,0,right,0.275440923373,as,m,26,59.9829521239,Set,2017_03_17_1604,
8,"[2.6, 2.6]",2,30,110,7,,,,,2,0,2,0,down,0.358655440292,as,m,26,59.9829521239,Set,2017_03_17_1604,
8,"[2.6, 2.6]",2,30,110,7,,,,,3,0,3,0,right,0.27543855494,as,m,26,59.9829521239,Set,2017_03_17_1604,
8,"[2.6, 2.6]",2,30,110,7,,,,,4,0,4,0,down,0.275462634014,as,m,26,59.9829521239,Set,2017_03_17_1604,
8,"[2.6, 2.6]",2,30,110,7,,,,,5,0,5,0,down,0.175414081127,as,m,26,59.9829521239,Set,2017_03_17_1604,
4,"[2.6, 2.6]",2,31,111,3,,,,,0,0,0,0,down,0.492148642888,as,m,26,59.9829521239,Set,2017_03_17_1604,
4,"[2.6, 2.6]",2,31,111,3,,,,,1,0,1,0,down,0.375453555019,as,m,26,59.9829521239,Set,2017_03_17_1604,
9,"[2.6, 2.6]",2,32,112,8,,,,,0,0,0,0,right,0.433578071464,as,m,26,59.9829521239,Set,2017_03_17_1604,
9,"[2.6, 2.6]",2,32,112,8,,,,,1,0,1,0,down,0.0587971515633,as,m,26,59.9829521239,Set,2017_03_17_1604,
9,"[2.6, 2.6]",2,32,112,8,,,,,2,0,2,0,left,0.216978905152,as,m,26,59.9829521239,Set,2017_03_17_1604,
9,"[2.6, 2.6]",2,32,112,8,,,,,3,0,3,0,left,0.158839388629,as,m,26,59.9829521239,Set,2017_03_17_1604,
9,"[2.6, 2.6]",2,32,112,8,,,,,4,0,4,0,left,0.125480792004,as,m,26,59.9829521239,Set,2017_03_17_1604,
9,"[2.6, 2.6]",2,32,112,8,,,,,5,0,5,0,left,0.125461055058,as,m,26,59.9829521239,Set,2017_03_17_1604,
9,"[2.6, 2.6]",2,32,112,8,,,,,6,0,6,0,left,0.142139169154,as,m,26,59.9829521239,Set,2017_03_17_1604,
9,"[2.6, 2.6]",2,32,112,8,,,,,7,0,7,0,left,0.108782151485,as,m,26,59.9829521239,Set,2017_03_17_1604,
9,"[2.6, 2.6]",2,32,112,8,,,,,8,0,8,0,down,0.192137195459,as,m,26,59.9829521239,Set,2017_03_17_1604,
9,"[2.6, 2.6]",2,32,112,8,,,,,9,0,9,0,down,0.0669121942747,as,m,26,59.9829521239,Set,2017_03_17_1604,
8,"[2.67, 2.67]",2,33,113,37,,,,,0,0,0,0,down,0.416892852068,as,m,26,59.9829521239,Set,2017_03_17_1604,
8,"[2.67, 2.67]",2,33,113,37,,,,,1,0,1,0,down,0.258763993495,as,m,26,59.9829521239,Set,2017_03_17_1604,
8,"[2.67, 2.67]",2,33,113,37,,,,,2,0,2,0,left,0.492127326986,as,m,26,59.9829521239,Set,2017_03_17_1604,
8,"[2.67, 2.67]",2,33,113,37,,,,,3,0,3,0,left,0.175436581246,as,m,26,59.9829521239,Set,2017_03_17_1604,
8,"[2.67, 2.67]",2,33,113,37,,,,,4,0,4,0,left,0.258781362008,as,m,26,59.9829521239,Set,2017_03_17_1604,
8,"[2.67, 2.67]",2,33,113,37,,,,,5,0,5,0,down,0.375473291964,as,m,26,59.9829521239,Set,2017_03_17_1604,
8,"[2.67, 2.67]",2,33,113,37,,,,,6,0,6,0,left,0.242117063774,as,m,26,59.9829521239,Set,2017_03_17_1604,
8,"[2.67, 2.67]",2,33,113,37,,,,,7,0,7,0,left,0.225425923295,as,m,26,59.9829521239,Set,2017_03_17_1604,
8,"[2.67, 2.67]",2,33,113,37,,,,,8,0,8,0,left,0.3088350465,as,m,26,59.9829521239,Set,2017_03_17_1604,
8,"[2.67, 2.67]",2,33,113,37,,,,,9,0,9,0,down,0.0921119321674,as,m,26,59.9829521239,Set,2017_03_17_1604,
8,"[2.67, 2.67]",2,33,113,37,,,,,10,0,10,0,down,0.0755080289891,as,m,26,59.9829521239,Set,2017_03_17_1604,
3,"[2.67, 2.67]",2,34,114,32,,,,,0,0,0,0,left,0.458662545593,as,m,26,59.9829521239,Set,2017_03_17_1604,
3,"[2.67, 2.67]",2,34,114,32,,,,,1,0,1,0,left,0.192060616108,as,m,26,59.9829521239,Set,2017_03_17_1604,
3,"[2.67, 2.67]",2,34,114,32,,,,,2,0,2,0,left,0.142101668956,as,m,26,59.9829521239,Set,2017_03_17_1604,
3,"[2.67, 2.67]",2,34,114,32,,,,,3,0,3,0,left,0.242102853173,as,m,26,59.9829521239,Set,2017_03_17_1604,
3,"[2.67, 2.67]",2,34,114,32,,,,,4,0,4,0,down,0.300254606604,as,m,26,59.9829521239,Set,2017_03_17_1604,
3,"[2.67, 2.67]",2,34,114,32,,,,,5,0,5,0,left,0.12525579082,as,m,26,59.9829521239,Set,2017_03_17_1604,
3,"[2.67, 2.67]",2,34,114,32,,,,,6,0,6,0,down,0.142130879636,as,m,26,59.9829521239,Set,2017_03_17_1604,
3,"[2.67, 2.67]",2,34,114,32,,,,,7,0,7,0,left,0.242134432287,as,m,26,59.9829521239,Set,2017_03_17_1604,
3,"[2.67, 2.67]",2,34,114,32,,,,,8,0,8,0,down,41.9416477192,as,m,26,59.9829521239,Set,2017_03_17_1604,
3,"[2.67, 2.67]",2,34,114,32,,,,,9,0,9,0,left,0.392126932247,as,m,26,59.9829521239,Set,2017_03_17_1604,
3,"[2.67, 2.67]",2,34,114,32,,,,,10,0,10,0,left,0.242093379439,as,m,26,59.9829521239,Set,2017_03_17_1604,
3,"[2.67, 2.67]",2,34,114,32,,,,,11,0,11,0,left,0.175485528871,as,m,26,59.9829521239,Set,2017_03_17_1604,
3,"[2.67, 2.67]",2,34,114,32,,,,,12,0,12,0,left,0.192215748504,as,m,26,59.9829521239,Set,2017_03_17_1604,
3,"[2.67, 2.67]",2,34,114,32,,,,,13,0,13,0,left,0.158777019879,as,m,26,59.9829521239,Set,2017_03_17_1604,
3,"[2.67, 2.67]",2,34,114,32,,,,,14,0,14,0,left,0.19214074811,as,m,26,59.9829521239,Set,2017_03_17_1604,
3,"[2.67, 2.67]",2,34,114,32,,,,,15,0,15,0,left,0.142141537587,as,m,26,59.9829521239,Set,2017_03_17_1604,
3,"[2.67, 2.67]",2,34,114,32,,,,,16,0,16,0,left,0.175453949758,as,m,26,59.9829521239,Set,2017_03_17_1604,
3,"[2.67, 2.67]",2,34,114,32,,,,,17,0,17,0,left,0.208785704135,as,m,26,59.9829521239,Set,2017_03_17_1604,
3,"[2.67, 2.67]",2,34,114,32,,,,,18,0,18,0,left,0.15880228317,as,m,26,59.9829521239,Set,2017_03_17_1604,
3,"[2.67, 2.67]",2,34,114,32,,,,,19,0,19,0,left,0.12545710767,as,m,26,59.9829521239,Set,2017_03_17_1604,
3,"[2.67, 2.67]",2,34,114,32,,,,,20,0,20,0,left,0.158799125258,as,m,26,59.9829521239,Set,2017_03_17_1604,
3,"[2.67, 2.67]",2,34,114,32,,,,,21,0,21,0,down,0.125450791846,as,m,26,59.9829521239,Set,2017_03_17_1604,
3,"[2.67, 2.67]",2,34,114,32,,,,,22,0,22,0,down,0.0421383796756,as,m,26,59.9829521239,Set,2017_03_17_1604,
4,"[2.67, 2.67]",2,35,115,33,,,,,0,0,0,0,down,0.775448028674,as,m,26,59.9829521239,Set,2017_03_17_1604,
4,"[2.67, 2.67]",2,35,115,33,,,,,1,0,1,0,left,0.325451976063,as,m,26,59.9829521239,Set,2017_03_17_1604,
4,"[2.67, 2.67]",2,35,115,33,,,,,2,0,2,0,right,0.308782940963,as,m,26,59.9829521239,Set,2017_03_17_1604,
4,"[2.67, 2.67]",2,35,115,33,,,,,3,0,3,0,left,0.19211864273,as,m,26,59.9829521239,Set,2017_03_17_1604,
4,"[2.67, 2.67]",2,35,115,33,,,,,4,0,4,0,down,0.192121405902,as,m,26,59.9829521239,Set,2017_03_17_1604,
4,"[2.67, 2.67]",2,35,115,33,,,,,5,0,5,0,down,0.158797546303,as,m,26,59.9829521239,Set,2017_03_17_1604,
10,"[2.63, 2.63]",2,36,116,29,,,,,0,0,0,0,down,0.533572545119,as,m,26,59.9829521239,Set,2017_03_17_1604,
10,"[2.63, 2.63]",2,36,116,29,,,,,1,0,1,0,right,0.375451976063,as,m,26,59.9829521239,Set,2017_03_17_1604,
10,"[2.63, 2.63]",2,36,116,29,,,,,2,0,2,0,right,0.375494607866,as,m,26,59.9829521239,Set,2017_03_17_1604,
10,"[2.63, 2.63]",2,36,116,29,,,,,3,0,3,0,down,0.292112326906,as,m,26,59.9829521239,Set,2017_03_17_1604,
10,"[2.63, 2.63]",2,36,116,29,,,,,4,0,4,0,right,0.275484344655,as,m,26,59.9829521239,Set,2017_03_17_1604,
10,"[2.63, 2.63]",2,36,116,29,,,,,5,0,5,0,down,0.258808204254,as,m,26,59.9829521239,Set,2017_03_17_1604,
10,"[2.63, 2.63]",2,36,116,29,,,,,6,0,6,0,down,0.175444870762,as,m,26,59.9829521239,Set,2017_03_17_1604,
3,"[2.6, 2.6]",2,37,117,2,,,,,0,0,0,0,left,0.442109958473,as,m,26,59.9829521239,Set,2017_03_17_1604,
3,"[2.6, 2.6]",2,37,117,2,,,,,1,0,1,0,left,0.142153379755,as,m,26,59.9829521239,Set,2017_03_17_1604,
