number_of_fixational_trials,size,estimating_threshold.thisRepN,estimating_threshold.thisTrialN,estimating_threshold.thisN,estimating_threshold.thisIndex,trials_2.thisRepN,trials_2.thisTrialN,trials_2.thisN,trials_2.thisIndex,trials.thisRepN,trials.thisTrialN,trials.thisN,trials.thisIndex,trials_3.thisRepN,trials_3.thisTrialN,trials_3.thisN,trials_3.thisIndex,rating_up.response,rating_up.rt,rating_down.response,rating_down.rt,answer.keys,answer.rt,participant,gender,age,frameRate,expName,date,
,,0,0,0,0,,,,,,,,,,,,,0.32,14.671,0.17,26.834,,,TED,f,47,59.9861241646,Set,2017_04_28_1921,
,,1,0,1,0,,,,,,,,,,,,,0.19,10.514,0.15,30.98,,,TED,f,47,59.9861241646,Set,2017_04_28_1921,
,,2,0,2,0,,,,,,,,,,,,,0.14,7.747,0.22,23.73,,,TED,f,47,59.9861241646,Set,2017_04_28_1921,
5,2,,,,,0,0,0,12,,,,,0,0,0,0,,,,,right,27.0000003947,TED,f,47,59.9861241646,Set,2017_04_28_1921,
5,2,,,,,0,0,0,12,,,,,1,0,1,0,,,,,down,3.18355151906,TED,f,47,59.9861241646,Set,2017_04_28_1921,
5,2,,,,,0,0,0,12,,,,,2,0,2,0,,,,,down,1.45022097521,TED,f,47,59.9861241646,Set,2017_04_28_1921,
1,1,,,,,0,1,1,0,,,,,0,0,0,0,,,,,down,1.3835755192,TED,f,47,59.9861241646,Set,2017_04_28_1921,
1,1,,,,,0,1,1,0,,,,,1,0,1,0,,,,,down,0.700230448943,TED,f,47,59.9861241646,Set,2017_04_28_1921,
7,3,,,,,0,2,2,22,,,,,0,0,0,0,,,,,left,1.01692564215,TED,f,47,59.9861241646,Set,2017_04_28_1921,
7,3,,,,,0,2,2,22,,,,,1,0,1,0,,,,,down,1.40023944899,TED,f,47,59.9861241646,Set,2017_04_28_1921,
7,3,,,,,0,2,2,22,,,,,2,0,2,0,,,,,down,1.05021639622,TED,f,47,59.9861241646,Set,2017_04_28_1921,
8,2,,,,,0,3,3,15,,,,,0,0,0,0,,,,,down,5.76684472052,TED,f,47,59.9861241646,Set,2017_04_28_1921,
8,2,,,,,0,3,3,15,,,,,1,0,1,0,,,,,down,1.13355104535,TED,f,47,59.9861241646,Set,2017_04_28_1921,
4,1,,,,,0,4,4,3,,,,,0,0,0,0,,,,,down,0.733397254808,TED,f,47,59.9861241646,Set,2017_04_28_1921,
4,1,,,,,0,4,4,3,,,,,1,0,1,0,,,,,down,0.616904089344,TED,f,47,59.9861241646,Set,2017_04_28_1921,
7,1,,,,,0,5,5,6,,,,,0,0,0,0,,,,,down,2.36689185241,TED,f,47,59.9861241646,Set,2017_04_28_1921,
7,1,,,,,0,5,5,6,,,,,1,0,1,0,,,,,down,0.816892562958,TED,f,47,59.9861241646,Set,2017_04_28_1921,
6,1,,,,,0,6,6,5,,,,,0,0,0,0,,,,,down,0.766911826242,TED,f,47,59.9861241646,Set,2017_04_28_1921,
6,1,,,,,0,6,6,5,,,,,1,0,1,0,,,,,down,0.616911984136,TED,f,47,59.9861241646,Set,2017_04_28_1921,
8,1,,,,,0,7,7,7,,,,,0,0,0,0,,,,,right,8.66682008878,TED,f,47,59.9861241646,Set,2017_04_28_1921,
8,1,,,,,0,7,7,7,,,,,1,0,1,0,,,,,down,0.650232343702,TED,f,47,59.9861241646,Set,2017_04_28_1921,
8,1,,,,,0,7,7,7,,,,,2,0,2,0,,,,,down,0.433568887587,TED,f,47,59.9861241646,Set,2017_04_28_1921,
7,2,,,,,0,8,8,14,,,,,0,0,0,0,,,,,down,0.950241501647,TED,f,47,59.9861241646,Set,2017_04_28_1921,
7,2,,,,,0,8,8,14,,,,,1,0,1,0,,,,,down,0.633557361201,TED,f,47,59.9861241646,Set,2017_04_28_1921,
2,2,,,,,0,9,9,9,,,,,0,0,0,0,,,,,down,0.513982464094,TED,f,47,59.9861241646,Set,2017_04_28_1921,
2,2,,,,,0,9,9,9,,,,,1,0,1,0,,,,,down,0.750234870036,TED,f,47,59.9861241646,Set,2017_04_28_1921,
2,3,,,,,0,10,10,17,,,,,0,0,0,0,,,,,down,0.767199591384,TED,f,47,59.9861241646,Set,2017_04_28_1921,
2,3,,,,,0,10,10,17,,,,,1,0,1,0,,,,,down,0.450596767245,TED,f,47,59.9861241646,Set,2017_04_28_1921,
3,1,,,,,0,11,11,2,,,,,0,0,0,0,,,,,down,1.68364862498,TED,f,47,59.9861241646,Set,2017_04_28_1921,
3,1,,,,,0,11,11,2,,,,,1,0,1,0,,,,,down,1.88061220944,TED,f,47,59.9861241646,Set,2017_04_28_1921,
5,1,,,,,0,12,12,4,,,,,0,0,0,0,,,,,down,2.41689114188,TED,f,47,59.9861241646,Set,2017_04_28_1921,
5,1,,,,,0,12,12,4,,,,,1,0,1,0,,,,,down,0.583578992926,TED,f,47,59.9861241646,Set,2017_04_28_1921,
6,3,,,,,0,13,13,21,,,,,0,0,0,0,,,,,down,0.667021800677,TED,f,47,59.9861241646,Set,2017_04_28_1921,
6,3,,,,,0,13,13,21,,,,,1,0,1,0,,,,,down,0.500277107174,TED,f,47,59.9861241646,Set,2017_04_28_1921,
1,2,,,,,0,14,14,8,,,,,0,0,0,0,,,,,down,3.38371644123,TED,f,47,59.9861241646,Set,2017_04_28_1921,
1,2,,,,,0,14,14,8,,,,,1,0,1,0,,,,,down,0.750316186371,TED,f,47,59.9861241646,Set,2017_04_28_1921,
5,3,,,,,0,15,15,20,,,,,0,0,0,0,,,,,down,0.650267475517,TED,f,47,59.9861241646,Set,2017_04_28_1921,
5,3,,,,,0,15,15,20,,,,,1,0,1,0,,,,,down,1.1002358174,TED,f,47,59.9861241646,Set,2017_04_28_1921,
8,3,,,,,0,16,16,23,,,,,0,0,0,0,,,,,down,0.733575282356,TED,f,47,59.9861241646,Set,2017_04_28_1921,
8,3,,,,,0,16,16,23,,,,,1,0,1,0,,,,,down,0.533871810709,TED,f,47,59.9861241646,Set,2017_04_28_1921,
6,2,,,,,0,17,17,13,,,,,0,0,0,0,,,,,right,1.91688758924,TED,f,47,59.9861241646,Set,2017_04_28_1921,
6,2,,,,,0,17,17,13,,,,,1,0,1,0,,,,,down,0.733567387564,TED,f,47,59.9861241646,Set,2017_04_28_1921,
6,2,,,,,0,17,17,13,,,,,2,0,2,0,,,,,down,0.683597308845,TED,f,47,59.9861241646,Set,2017_04_28_1921,
3,3,,,,,0,18,18,18,,,,,0,0,0,0,,,,,down,0.533571019187,TED,f,47,59.9861241646,Set,2017_04_28_1921,
3,3,,,,,0,18,18,18,,,,,1,0,1,0,,,,,down,0.400231159467,TED,f,47,59.9861241646,Set,2017_04_28_1921,
3,2,,,,,0,19,19,10,,,,,0,0,0,0,,,,,down,0.566904405132,TED,f,47,59.9861241646,Set,2017_04_28_1921,
3,2,,,,,0,19,19,10,,,,,1,0,1,0,,,,,down,0.600226738403,TED,f,47,59.9861241646,Set,2017_04_28_1921,
4,3,,,,,0,20,20,19,,,,,0,0,0,0,,,,,down,142.541065939,TED,f,47,59.9861241646,Set,2017_04_28_1921,
4,3,,,,,0,20,20,19,,,,,1,0,1,0,,,,,down,1.35033173912,TED,f,47,59.9861241646,Set,2017_04_28_1921,
2,1,,,,,0,21,21,1,,,,,0,0,0,0,,,,,down,1.10029502833,TED,f,47,59.9861241646,Set,2017_04_28_1921,
2,1,,,,,0,21,21,1,,,,,1,0,1,0,,,,,down,0.666944431752,TED,f,47,59.9861241646,Set,2017_04_28_1921,
4,2,,,,,0,22,22,11,,,,,0,0,0,0,,,,,down,0.992137577763,TED,f,47,59.9861241646,Set,2017_04_28_1921,
4,2,,,,,0,22,22,11,,,,,1,0,1,0,,,,,down,0.542161341116,TED,f,47,59.9861241646,Set,2017_04_28_1921,
1,3,,,,,0,23,23,16,,,,,0,0,0,0,,,,,down,0.858792191721,TED,f,47,59.9861241646,Set,2017_04_28_1921,
1,3,,,,,0,23,23,16,,,,,1,0,1,0,,,,,down,3.95872840181,TED,f,47,59.9861241646,Set,2017_04_28_1921,
