size,n,trials_2.thisRepN,trials_2.thisTrialN,trials_2.thisN,trials_2.thisIndex,trials.thisRepN,trials.thisTrialN,trials.thisN,trials.thisIndex,trials_3.thisRepN,trials_3.thisTrialN,trials_3.thisN,trials_3.thisIndex,answer.keys,answer.rt,participant,gender,age,frameRate,expName,date,
"[2.7, 2.7]",6,0,0,0,11,,,,,0,0,0,0,right,6.40868339463,TPS,m,18,59.9786443259,Set,2017_12_15_2109,
"[2.7, 2.7]",6,0,0,0,11,,,,,1,0,1,0,down,1.29210150483,TPS,m,18,59.9786443259,Set,2017_12_15_2109,
"[2.7, 2.7]",6,0,0,0,11,,,,,2,0,2,0,down,0.708779158391,TPS,m,18,59.9786443259,Set,2017_12_15_2109,
"[2.7, 2.7]",2,0,1,1,7,,,,,0,0,0,0,down,0.550270435866,TPS,m,18,59.9786443259,Set,2017_12_15_2109,
"[2.7, 2.7]",2,0,1,1,7,,,,,1,0,1,0,down,1.17543593029,TPS,m,18,59.9786443259,Set,2017_12_15_2109,
"[2.6, 2.6]",6,0,2,2,5,,,,,0,0,0,0,right,0.483629769325,TPS,m,18,59.9786443259,Set,2017_12_15_2109,
"[2.6, 2.6]",6,0,2,2,5,,,,,1,0,1,0,right,0.825447890878,TPS,m,18,59.9786443259,Set,2017_12_15_2109,
"[2.6, 2.6]",6,0,2,2,5,,,,,2,0,2,0,right,1.80024181725,TPS,m,18,59.9786443259,Set,2017_12_15_2109,
"[2.6, 2.6]",6,0,2,2,5,,,,,3,0,3,0,right,0.525447654043,TPS,m,18,59.9786443259,Set,2017_12_15_2109,
"[2.6, 2.6]",6,0,2,2,5,,,,,4,0,4,0,right,3.14210533377,TPS,m,18,59.9786443259,Set,2017_12_15_2109,
"[2.6, 2.6]",6,0,2,2,5,,,,,5,0,5,0,right,1.57555308886,TPS,m,18,59.9786443259,Set,2017_12_15_2109,
"[2.6, 2.6]",6,0,2,2,5,,,,,6,0,6,0,right,1.31698310279,TPS,m,18,59.9786443259,Set,2017_12_15_2109,
"[2.6, 2.6]",6,0,2,2,5,,,,,7,0,7,0,right,0.475476035761,TPS,m,18,59.9786443259,Set,2017_12_15_2109,
"[2.6, 2.6]",6,0,2,2,5,,,,,8,0,8,0,right,0.508787684783,TPS,m,18,59.9786443259,Set,2017_12_15_2109,
"[2.6, 2.6]",6,0,2,2,5,,,,,9,0,9,0,right,0.708804026974,TPS,m,18,59.9786443259,Set,2017_12_15_2109,
"[2.6, 2.6]",6,0,2,2,5,,,,,10,0,10,0,right,0.542106833804,TPS,m,18,59.9786443259,Set,2017_12_15_2109,
"[2.6, 2.6]",6,0,2,2,5,,,,,11,0,11,0,right,0.35879861904,TPS,m,18,59.9786443259,Set,2017_12_15_2109,
"[2.6, 2.6]",6,0,2,2,5,,,,,12,0,12,0,right,0.308783579472,TPS,m,18,59.9786443259,Set,2017_12_15_2109,
"[2.6, 2.6]",6,0,2,2,5,,,,,13,0,13,0,right,0.342104702228,TPS,m,18,59.9786443259,Set,2017_12_15_2109,
"[2.6, 2.6]",6,0,2,2,5,,,,,14,0,14,0,right,1.77545140407,TPS,m,18,59.9786443259,Set,2017_12_15_2109,
"[2.6, 2.6]",6,0,2,2,5,,,,,15,0,15,0,right,0.65877240838,TPS,m,18,59.9786443259,Set,2017_12_15_2109,
"[2.6, 2.6]",6,0,2,2,5,,,,,16,0,16,0,right,0.808596867835,TPS,m,18,59.9786443259,Set,2017_12_15_2109,
"[2.6, 2.6]",6,0,2,2,5,,,,,17,0,17,0,right,0.492116662819,TPS,m,18,59.9786443259,Set,2017_12_15_2109,
"[2.6, 2.6]",6,0,2,2,5,,,,,18,0,18,0,right,0.558792066382,TPS,m,18,59.9786443259,Set,2017_12_15_2109,
"[2.6, 2.6]",6,0,2,2,5,,,,,19,0,19,0,right,0.4421545183,TPS,m,18,59.9786443259,Set,2017_12_15_2109,
"[2.6, 2.6]",6,0,2,2,5,,,,,20,0,20,0,right,0.358786776866,TPS,m,18,59.9786443259,Set,2017_12_15_2109,
"[2.6, 2.6]",6,0,2,2,5,,,,,21,0,21,0,right,0.325469601521,TPS,m,18,59.9786443259,Set,2017_12_15_2109,
"[2.6, 2.6]",6,0,2,2,5,,,,,22,0,22,0,right,0.542109202244,TPS,m,18,59.9786443259,Set,2017_12_15_2109,
"[2.6, 2.6]",6,0,2,2,5,,,,,23,0,23,0,right,0.375487799,TPS,m,18,59.9786443259,Set,2017_12_15_2109,
"[2.6, 2.6]",6,0,2,2,5,,,,,24,0,24,0,right,0.375453851448,TPS,m,18,59.9786443259,Set,2017_12_15_2109,
"[2.6, 2.6]",6,0,2,2,5,,,,,25,0,25,0,right,0.542135649768,TPS,m,18,59.9786443259,Set,2017_12_15_2109,
"[2.6, 2.6]",6,0,2,2,5,,,,,26,0,26,0,down,0.675409482734,TPS,m,18,59.9786443259,Set,2017_12_15_2109,
"[2.6, 2.6]",6,0,2,2,5,,,,,27,0,27,0,down,0.558781013679,TPS,m,18,59.9786443259,Set,2017_12_15_2109,
"[2.9, 2.9]",6,0,3,3,23,,,,,0,0,0,0,down,0.608779474191,TPS,m,18,59.9786443259,Set,2017_12_15_2109,
"[2.9, 2.9]",6,0,3,3,23,,,,,1,0,1,0,down,0.458781724214,TPS,m,18,59.9786443259,Set,2017_12_15_2109,
"[2.7, 2.7]",1,0,4,4,6,,,,,0,0,0,0,down,0.408779316291,TPS,m,18,59.9786443259,Set,2017_12_15_2109,
"[2.7, 2.7]",1,0,4,4,6,,,,,1,0,1,0,down,0.54215657094,TPS,m,18,59.9786443259,Set,2017_12_15_2109,
"[2.9, 2.9]",2,0,5,5,19,,,,,0,0,0,0,down,0.400265975302,TPS,m,18,59.9786443259,Set,2017_12_15_2109,
"[2.9, 2.9]",2,0,5,5,19,,,,,1,0,1,0,down,0.808763447771,TPS,m,18,59.9786443259,Set,2017_12_15_2109,
"[3.0, 3.0]",5,0,6,6,28,,,,,0,0,0,0,down,0.533558360999,TPS,m,18,59.9786443259,Set,2017_12_15_2109,
"[3.0, 3.0]",5,0,6,6,28,,,,,1,0,1,0,down,0.542125386564,TPS,m,18,59.9786443259,Set,2017_12_15_2109,
"[2.8, 2.8]",4,0,7,7,15,,,,,0,0,0,0,left,0.692119583866,TPS,m,18,59.9786443259,Set,2017_12_15_2109,
"[2.8, 2.8]",4,0,7,7,15,,,,,1,0,1,0,down,0.642127439205,TPS,m,18,59.9786443259,Set,2017_12_15_2109,
"[2.8, 2.8]",4,0,7,7,15,,,,,2,0,2,0,down,0.591959635523,TPS,m,18,59.9786443259,Set,2017_12_15_2109,
"[2.8, 2.8]",4,0,7,7,15,,,,,3,0,3,0,left,1.24215870255,TPS,m,18,59.9786443259,Set,2017_12_15_2109,
"[2.8, 2.8]",4,0,7,7,15,,,,,4,0,4,0,down,0.408762737236,TPS,m,18,59.9786443259,Set,2017_12_15_2109,
"[2.8, 2.8]",4,0,7,7,15,,,,,5,0,5,0,down,0.492104820645,TPS,m,18,59.9786443259,Set,2017_12_15_2109,
"[2.8, 2.8]",5,0,8,8,16,,,,,0,0,0,0,left,1.07546308832,TPS,m,18,59.9786443259,Set,2017_12_15_2109,
"[2.8, 2.8]",5,0,8,8,16,,,,,1,0,1,0,down,0.492138768197,TPS,m,18,59.9786443259,Set,2017_12_15_2109,
"[2.8, 2.8]",5,0,8,8,16,,,,,2,0,2,0,down,0.508633736463,TPS,m,18,59.9786443259,Set,2017_12_15_2109,
"[2.8, 2.8]",3,0,9,9,14,,,,,0,0,0,0,left,1.70027963325,TPS,m,18,59.9786443259,Set,2017_12_15_2109,
"[2.8, 2.8]",3,0,9,9,14,,,,,1,0,1,0,down,0.516895628563,TPS,m,18,59.9786443259,Set,2017_12_15_2109,
"[2.8, 2.8]",3,0,9,9,14,,,,,2,0,2,0,down,0.258806829632,TPS,m,18,59.9786443259,Set,2017_12_15_2109,
"[2.9, 2.9]",4,0,10,10,21,,,,,0,0,0,0,left,0.458719750168,TPS,m,18,59.9786443259,Set,2017_12_15_2109,
"[2.9, 2.9]",4,0,10,10,21,,,,,1,0,1,0,down,0.408818000753,TPS,m,18,59.9786443259,Set,2017_12_15_2109,
"[2.9, 2.9]",4,0,10,10,21,,,,,2,0,2,0,down,0.42548152266,TPS,m,18,59.9786443259,Set,2017_12_15_2109,
"[3.0, 3.0]",4,0,11,11,27,,,,,0,0,0,0,left,1.03357217688,TPS,m,18,59.9786443259,Set,2017_12_15_2109,
"[3.0, 3.0]",4,0,11,11,27,,,,,1,0,1,0,down,0.525446864543,TPS,m,18,59.9786443259,Set,2017_12_15_2109,
"[3.0, 3.0]",4,0,11,11,27,,,,,2,0,2,0,down,0.442126886541,TPS,m,18,59.9786443259,Set,2017_12_15_2109,
"[2.6, 2.6]",2,0,12,12,1,,,,,0,0,0,0,down,1.02548160162,TPS,m,18,59.9786443259,Set,2017_12_15_2109,
"[2.6, 2.6]",2,0,12,12,1,,,,,1,0,1,0,down,0.525376995705,TPS,m,18,59.9786443259,Set,2017_12_15_2109,
"[2.8, 2.8]",1,0,13,13,12,,,,,0,0,0,0,down,1.116905576,TPS,m,18,59.9786443259,Set,2017_12_15_2109,
"[2.8, 2.8]",1,0,13,13,12,,,,,1,0,1,0,down,0.575539667741,TPS,m,18,59.9786443259,Set,2017_12_15_2109,
"[3.0, 3.0]",3,0,14,14,26,,,,,0,0,0,0,down,0.492109952233,TPS,m,18,59.9786443259,Set,2017_12_15_2109,
"[3.0, 3.0]",3,0,14,14,26,,,,,1,0,1,0,down,0.408802211168,TPS,m,18,59.9786443259,Set,2017_12_15_2109,
"[2.6, 2.6]",1,0,15,15,0,,,,,0,0,0,0,down,0.675467114663,TPS,m,18,59.9786443259,Set,2017_12_15_2109,
"[2.6, 2.6]",1,0,15,15,0,,,,,1,0,1,0,down,0.525454364601,TPS,m,18,59.9786443259,Set,2017_12_15_2109,
"[2.8, 2.8]",6,0,16,16,17,,,,,0,0,0,0,down,0.892114215414,TPS,m,18,59.9786443259,Set,2017_12_15_2109,
"[2.8, 2.8]",6,0,16,16,17,,,,,1,0,1,0,left,0.708789026889,TPS,m,18,59.9786443259,Set,2017_12_15_2109,
"[2.8, 2.8]",6,0,16,16,17,,,,,2,0,2,0,left,0.592130952369,TPS,m,18,59.9786443259,Set,2017_12_15_2109,
"[2.8, 2.8]",6,0,16,16,17,,,,,3,0,3,0,down,0.625447338214,TPS,m,18,59.9786443259,Set,2017_12_15_2109,
"[2.8, 2.8]",6,0,16,16,17,,,,,4,0,4,0,left,0.592115162814,TPS,m,18,59.9786443259,Set,2017_12_15_2109,
"[2.8, 2.8]",6,0,16,16,17,,,,,5,0,5,0,down,0.508779000491,TPS,m,18,59.9786443259,Set,2017_12_15_2109,
"[2.8, 2.8]",6,0,16,16,17,,,,,6,0,6,0,down,0.408758000354,TPS,m,18,59.9786443259,Set,2017_12_15_2109,
"[2.6, 2.6]",5,0,17,17,4,,,,,0,0,0,0,down,0.883599295485,TPS,m,18,59.9786443259,Set,2017_12_15_2109,
"[2.6, 2.6]",5,0,17,17,4,,,,,1,0,1,0,down,0.475457877794,TPS,m,18,59.9786443259,Set,2017_12_15_2109,
"[3.0, 3.0]",6,0,18,18,29,,,,,0,0,0,0,left,0.592099767993,TPS,m,18,59.9786443259,Set,2017_12_15_2109,
"[3.0, 3.0]",6,0,18,18,29,,,,,1,0,1,0,down,0.592143584043,TPS,m,18,59.9786443259,Set,2017_12_15_2109,
"[3.0, 3.0]",6,0,18,18,29,,,,,2,0,2,0,left,0.82545104876,TPS,m,18,59.9786443259,Set,2017_12_15_2109,
"[3.0, 3.0]",6,0,18,18,29,,,,,3,0,3,0,down,0.508782947902,TPS,m,18,59.9786443259,Set,2017_12_15_2109,
"[3.0, 3.0]",6,0,18,18,29,,,,,4,0,4,0,left,0.858838487708,TPS,m,18,59.9786443259,Set,2017_12_15_2109,
"[3.0, 3.0]",6,0,18,18,29,,,,,5,0,5,0,down,0.425470864691,TPS,m,18,59.9786443259,Set,2017_12_15_2109,
"[3.0, 3.0]",6,0,18,18,29,,,,,6,0,6,0,down,0.625448127714,TPS,m,18,59.9786443259,Set,2017_12_15_2109,
"[3.0, 3.0]",6,0,18,18,29,,,,,7,0,7,0,left,0.792112557509,TPS,m,18,59.9786443259,Set,2017_12_15_2109,
"[3.0, 3.0]",6,0,18,18,29,,,,,8,0,8,0,down,0.442129254981,TPS,m,18,59.9786443259,Set,2017_12_15_2109,
"[3.0, 3.0]",6,0,18,18,29,,,,,9,0,9,0,down,0.508780974196,TPS,m,18,59.9786443259,Set,2017_12_15_2109,
"[2.6, 2.6]",4,0,19,19,3,,,,,0,0,0,0,down,0.600246001472,TPS,m,18,59.9786443259,Set,2017_12_15_2109,
"[2.6, 2.6]",4,0,19,19,3,,,,,1,0,1,0,down,0.808800158527,TPS,m,18,59.9786443259,Set,2017_12_15_2109,
"[2.8, 2.8]",2,0,20,20,13,,,,,0,0,0,0,left,0.542137228738,TPS,m,18,59.9786443259,Set,2017_12_15_2109,
"[2.8, 2.8]",2,0,20,20,13,,,,,1,0,1,0,down,0.392137110292,TPS,m,18,59.9786443259,Set,2017_12_15_2109,
"[2.8, 2.8]",2,0,20,20,13,,,,,2,0,2,0,left,1.0587770663,TPS,m,18,59.9786443259,Set,2017_12_15_2109,
"[2.8, 2.8]",2,0,20,20,13,,,,,3,0,3,0,left,0.958793961123,TPS,m,18,59.9786443259,Set,2017_12_15_2109,
"[2.8, 2.8]",2,0,20,20,13,,,,,4,0,4,0,down,0.375468456798,TPS,m,18,59.9786443259,Set,2017_12_15_2109,
"[2.8, 2.8]",2,0,20,20,13,,,,,5,0,5,0,left,0.608779474191,TPS,m,18,59.9786443259,Set,2017_12_15_2109,
"[2.8, 2.8]",2,0,20,20,13,,,,,6,0,6,0,down,0.392135531321,TPS,m,18,59.9786443259,Set,2017_12_15_2109,
"[2.8, 2.8]",2,0,20,20,13,,,,,7,0,7,0,down,0.358782434749,TPS,m,18,59.9786443259,Set,2017_12_15_2109,
"[2.7, 2.7]",3,0,21,21,8,,,,,0,0,0,0,down,0.675467509427,TPS,m,18,59.9786443259,Set,2017_12_15_2109,
"[2.7, 2.7]",3,0,21,21,8,,,,,1,0,1,0,left,0.458826329734,TPS,m,18,59.9786443259,Set,2017_12_15_2109,
"[2.7, 2.7]",3,0,21,21,8,,,,,2,0,2,0,left,0.408791553229,TPS,m,18,59.9786443259,Set,2017_12_15_2109,
"[2.7, 2.7]",3,0,21,21,8,,,,,3,0,3,0,down,0.392140268203,TPS,m,18,59.9786443259,Set,2017_12_15_2109,
"[2.7, 2.7]",3,0,21,21,8,,,,,4,0,4,0,down,0.642108491709,TPS,m,18,59.9786443259,Set,2017_12_15_2109,
"[2.7, 2.7]",3,0,21,21,8,,,,,5,0,5,0,left,0.592149899836,TPS,m,18,59.9786443259,Set,2017_12_15_2109,
"[2.7, 2.7]",3,0,21,21,8,,,,,6,0,6,0,left,0.375399772165,TPS,m,18,59.9786443259,Set,2017_12_15_2109,
"[2.7, 2.7]",3,0,21,21,8,,,,,7,0,7,0,left,0.308782000531,TPS,m,18,59.9786443259,Set,2017_12_15_2109,
"[2.7, 2.7]",3,0,21,21,8,,,,,8,0,8,0,left,0.358801776951,TPS,m,18,59.9786443259,Set,2017_12_15_2109,
"[2.7, 2.7]",3,0,21,21,8,,,,,9,0,9,0,down,0.558807461202,TPS,m,18,59.9786443259,Set,2017_12_15_2109,
"[2.7, 2.7]",3,0,21,21,8,,,,,10,0,10,0,left,0.333575176919,TPS,m,18,59.9786443259,Set,2017_12_15_2109,
"[2.7, 2.7]",3,0,21,21,8,,,,,11,0,11,0,down,0.358795066393,TPS,m,18,59.9786443259,Set,2017_12_15_2109,
"[2.7, 2.7]",3,0,21,21,8,,,,,12,0,12,0,down,0.242114097025,TPS,m,18,59.9786443259,Set,2017_12_15_2109,
"[3.0, 3.0]",1,0,22,22,24,,,,,0,0,0,0,down,0.55878496106,TPS,m,18,59.9786443259,Set,2017_12_15_2109,
"[3.0, 3.0]",1,0,22,22,24,,,,,1,0,1,0,down,0.542112360155,TPS,m,18,59.9786443259,Set,2017_12_15_2109,
"[2.6, 2.6]",3,0,23,23,2,,,,,0,0,0,0,down,0.425431785523,TPS,m,18,59.9786443259,Set,2017_12_15_2109,
"[2.6, 2.6]",3,0,23,23,2,,,,,1,0,1,0,down,0.591968319815,TPS,m,18,59.9786443259,Set,2017_12_15_2109,
"[2.7, 2.7]",5,0,24,24,10,,,,,0,0,0,0,down,0.466749535582,TPS,m,18,59.9786443259,Set,2017_12_15_2109,
"[2.7, 2.7]",5,0,24,24,10,,,,,1,0,1,0,down,0.542117491772,TPS,m,18,59.9786443259,Set,2017_12_15_2109,
"[2.7, 2.7]",5,0,24,24,10,,,,,2,0,2,0,right,0.742113702261,TPS,m,18,59.9786443259,Set,2017_12_15_2109,
"[2.7, 2.7]",5,0,24,24,10,,,,,3,0,3,0,down,0.558801540115,TPS,m,18,59.9786443259,Set,2017_12_15_2109,
"[2.7, 2.7]",5,0,24,24,10,,,,,4,0,4,0,down,0.358777303132,TPS,m,18,59.9786443259,Set,2017_12_15_2109,
"[3.0, 3.0]",2,0,25,25,25,,,,,0,0,0,0,left,0.466903089167,TPS,m,18,59.9786443259,Set,2017_12_15_2109,
"[3.0, 3.0]",2,0,25,25,25,,,,,1,0,1,0,down,0.625457601447,TPS,m,18,59.9786443259,Set,2017_12_15_2109,
"[3.0, 3.0]",2,0,25,25,25,,,,,2,0,2,0,down,0.358857829939,TPS,m,18,59.9786443259,Set,2017_12_15_2109,
"[2.9, 2.9]",1,0,26,26,18,,,,,0,0,0,0,down,2.116878339,TPS,m,18,59.9786443259,Set,2017_12_15_2109,
"[2.9, 2.9]",1,0,26,26,18,,,,,1,0,1,0,down,0.375470035739,TPS,m,18,59.9786443259,Set,2017_12_15_2109,
"[2.7, 2.7]",4,0,27,27,9,,,,,0,0,0,0,down,0.408814448077,TPS,m,18,59.9786443259,Set,2017_12_15_2109,
"[2.7, 2.7]",4,0,27,27,9,,,,,1,0,1,0,down,0.375466877827,TPS,m,18,59.9786443259,Set,2017_12_15_2109,
"[2.9, 2.9]",3,0,28,28,20,,,,,0,0,0,0,down,0.492133636581,TPS,m,18,59.9786443259,Set,2017_12_15_2109,
"[2.9, 2.9]",3,0,28,28,20,,,,,1,0,1,0,down,0.408941948845,TPS,m,18,59.9786443259,Set,2017_12_15_2109,
"[2.9, 2.9]",5,0,29,29,22,,,,,0,0,0,0,down,0.508815711248,TPS,m,18,59.9786443259,Set,2017_12_15_2109,
"[2.9, 2.9]",5,0,29,29,22,,,,,1,0,1,0,down,0.425303100521,TPS,m,18,59.9786443259,Set,2017_12_15_2109,
