size,n,trials_2.thisRepN,trials_2.thisTrialN,trials_2.thisN,trials_2.thisIndex,trials.thisRepN,trials.thisTrialN,trials.thisN,trials.thisIndex,trials_3.thisRepN,trials_3.thisTrialN,trials_3.thisN,trials_3.thisIndex,answer.keys,answer.rt,participant,gender,age,frameRate,expName,date,
"[2.9, 2.9]",3,0,0,0,20,,,,,0,0,0,0,down,7.09207134671,AA,f,27,59.9875919575,Set,2017_12_21_1949,
"[2.9, 2.9]",3,0,0,0,20,,,,,1,0,1,0,down,5.05875298718,AA,f,27,59.9875919575,Set,2017_12_21_1949,
"[2.7, 2.7]",6,0,1,1,11,,,,,0,0,0,0,right,4.8835550847,AA,f,27,59.9875919575,Set,2017_12_21_1949,
"[2.7, 2.7]",6,0,1,1,11,,,,,1,0,1,0,down,1.04217157105,AA,f,27,59.9875919575,Set,2017_12_21_1949,
"[2.7, 2.7]",6,0,1,1,11,,,,,2,0,2,0,down,1.22539649589,AA,f,27,59.9875919575,Set,2017_12_21_1949,
"[2.8, 2.8]",4,0,2,2,15,,,,,0,0,0,0,left,1.73356325587,AA,f,27,59.9875919575,Set,2017_12_21_1949,
"[2.8, 2.8]",4,0,2,2,15,,,,,1,0,1,0,left,0.925438496051,AA,f,27,59.9875919575,Set,2017_12_21_1949,
"[2.8, 2.8]",4,0,2,2,15,,,,,2,0,2,0,down,1.40878563211,AA,f,27,59.9875919575,Set,2017_12_21_1949,
"[2.8, 2.8]",4,0,2,2,15,,,,,3,0,3,0,down,0.642127833911,AA,f,27,59.9875919575,Set,2017_12_21_1949,
"[2.9, 2.9]",6,0,3,3,23,,,,,0,0,0,0,left,0.892123294412,AA,f,27,59.9875919575,Set,2017_12_21_1949,
"[2.9, 2.9]",6,0,3,3,23,,,,,1,0,1,0,down,1.47550208855,AA,f,27,59.9875919575,Set,2017_12_21_1949,
"[2.9, 2.9]",6,0,3,3,23,,,,,2,0,2,0,left,0.742167781573,AA,f,27,59.9875919575,Set,2017_12_21_1949,
"[2.9, 2.9]",6,0,3,3,23,,,,,3,0,3,0,left,0.583576953271,AA,f,27,59.9875919575,Set,2017_12_21_1949,
"[2.9, 2.9]",6,0,3,3,23,,,,,4,0,4,0,down,0.958771855687,AA,f,27,59.9875919575,Set,2017_12_21_1949,
"[2.9, 2.9]",6,0,3,3,23,,,,,5,0,5,0,left,0.958739881869,AA,f,27,59.9875919575,Set,2017_12_21_1949,
"[2.9, 2.9]",6,0,3,3,23,,,,,6,0,6,0,left,0.858757960959,AA,f,27,59.9875919575,Set,2017_12_21_1949,
"[2.9, 2.9]",6,0,3,3,23,,,,,7,0,7,0,down,1.05879364535,AA,f,27,59.9875919575,Set,2017_12_21_1949,
"[2.9, 2.9]",6,0,3,3,23,,,,,8,0,8,0,down,0.742167781456,AA,f,27,59.9875919575,Set,2017_12_21_1949,
"[2.9, 2.9]",6,0,3,3,23,,,,,9,0,9,0,left,0.542123807594,AA,f,27,59.9875919575,Set,2017_12_21_1949,
"[2.9, 2.9]",6,0,3,3,23,,,,,10,0,10,0,right,0.608811447979,AA,f,27,59.9875919575,Set,2017_12_21_1949,
"[2.9, 2.9]",6,0,3,3,23,,,,,11,0,11,0,left,0.508786105784,AA,f,27,59.9875919575,Set,2017_12_21_1949,
"[2.9, 2.9]",6,0,3,3,23,,,,,12,0,12,0,right,0.45877896098,AA,f,27,59.9875919575,Set,2017_12_21_1949,
"[2.9, 2.9]",6,0,3,3,23,,,,,13,0,13,0,down,2.48356384784,AA,f,27,59.9875919575,Set,2017_12_21_1949,
"[2.9, 2.9]",6,0,3,3,23,,,,,14,0,14,0,down,0.692136163008,AA,f,27,59.9875919575,Set,2017_12_21_1949,
"[3.0, 3.0]",6,0,4,4,29,,,,,0,0,0,0,left,0.650224330253,AA,f,27,59.9875919575,Set,2017_12_21_1949,
"[3.0, 3.0]",6,0,4,4,29,,,,,1,0,1,0,left,0.858801382245,AA,f,27,59.9875919575,Set,2017_12_21_1949,
"[3.0, 3.0]",6,0,4,4,29,,,,,2,0,2,0,left,0.792104662745,AA,f,27,59.9875919575,Set,2017_12_21_1949,
"[3.0, 3.0]",6,0,4,4,29,,,,,3,0,3,0,left,0.558801540057,AA,f,27,59.9875919575,Set,2017_12_21_1949,
"[3.0, 3.0]",6,0,4,4,29,,,,,4,0,4,0,left,0.392110662768,AA,f,27,59.9875919575,Set,2017_12_21_1949,
"[3.0, 3.0]",6,0,4,4,29,,,,,5,0,5,0,right,0.458773434744,AA,f,27,59.9875919575,Set,2017_12_21_1949,
"[3.0, 3.0]",6,0,4,4,29,,,,,6,0,6,0,left,0.425455864635,AA,f,27,59.9875919575,Set,2017_12_21_1949,
"[3.0, 3.0]",6,0,4,4,29,,,,,7,0,7,0,left,0.608798026922,AA,f,27,59.9875919575,Set,2017_12_21_1949,
"[3.0, 3.0]",6,0,4,4,29,,,,,8,0,8,0,left,0.558774697827,AA,f,27,59.9875919575,Set,2017_12_21_1949,
"[3.0, 3.0]",6,0,4,4,29,,,,,9,0,9,0,left,0.658610565355,AA,f,27,59.9875919575,Set,2017_12_21_1949,
"[3.0, 3.0]",6,0,4,4,29,,,,,10,0,10,0,down,1.05878811888,AA,f,27,59.9875919575,Set,2017_12_21_1949,
"[3.0, 3.0]",6,0,4,4,29,,,,,11,0,11,0,right,0.592122268048,AA,f,27,59.9875919575,Set,2017_12_21_1949,
"[3.0, 3.0]",6,0,4,4,29,,,,,12,0,12,0,right,0.825438417029,AA,f,27,59.9875919575,Set,2017_12_21_1949,
"[3.0, 3.0]",6,0,4,4,29,,,,,13,0,13,0,left,0.525498970179,AA,f,27,59.9875919575,Set,2017_12_21_1949,
"[3.0, 3.0]",6,0,4,4,29,,,,,14,0,14,0,right,0.558775882004,AA,f,27,59.9875919575,Set,2017_12_21_1949,
"[3.0, 3.0]",6,0,4,4,29,,,,,15,0,15,0,down,0.475291692535,AA,f,27,59.9875919575,Set,2017_12_21_1949,
"[3.0, 3.0]",6,0,4,4,29,,,,,16,0,16,0,down,0.375435298774,AA,f,27,59.9875919575,Set,2017_12_21_1949,
"[2.8, 2.8]",6,0,5,5,17,,,,,0,0,0,0,left,0.725452548708,AA,f,27,59.9875919575,Set,2017_12_21_1949,
"[2.8, 2.8]",6,0,5,5,17,,,,,1,0,1,0,down,0.458779355744,AA,f,27,59.9875919575,Set,2017_12_21_1949,
"[2.8, 2.8]",6,0,5,5,17,,,,,2,0,2,0,down,0.325294337352,AA,f,27,59.9875919575,Set,2017_12_21_1949,
"[2.9, 2.9]",1,0,6,6,18,,,,,0,0,0,0,left,4.64207849151,AA,f,27,59.9875919575,Set,2017_12_21_1949,
"[2.9, 2.9]",1,0,6,6,18,,,,,1,0,1,0,down,0.642144018319,AA,f,27,59.9875919575,Set,2017_12_21_1949,
"[2.9, 2.9]",1,0,6,6,18,,,,,2,0,2,0,down,0.408800632227,AA,f,27,59.9875919575,Set,2017_12_21_1949,
"[2.7, 2.7]",1,0,7,7,6,,,,,0,0,0,0,down,1.11691583914,AA,f,27,59.9875919575,Set,2017_12_21_1949,
"[2.7, 2.7]",1,0,7,7,6,,,,,1,0,1,0,down,0.492130083963,AA,f,27,59.9875919575,Set,2017_12_21_1949,
"[2.6, 2.6]",1,0,8,8,0,,,,,0,0,0,0,down,2.45875369769,AA,f,27,59.9875919575,Set,2017_12_21_1949,
"[2.6, 2.6]",1,0,8,8,0,,,,,1,0,1,0,down,1.09210805746,AA,f,27,59.9875919575,Set,2017_12_21_1949,
"[3.0, 3.0]",5,0,9,9,28,,,,,0,0,0,0,left,0.708782316302,AA,f,27,59.9875919575,Set,2017_12_21_1949,
"[3.0, 3.0]",5,0,9,9,28,,,,,1,0,1,0,down,1.79212242598,AA,f,27,59.9875919575,Set,2017_12_21_1949,
"[3.0, 3.0]",5,0,9,9,28,,,,,2,0,2,0,down,0.675453298725,AA,f,27,59.9875919575,Set,2017_12_21_1949,
"[2.7, 2.7]",2,0,10,10,7,,,,,0,0,0,0,left,0.908833000925,AA,f,27,59.9875919575,Set,2017_12_21_1949,
"[2.7, 2.7]",2,0,10,10,7,,,,,1,0,1,0,down,1.67543040391,AA,f,27,59.9875919575,Set,2017_12_21_1949,
"[2.7, 2.7]",2,0,10,10,7,,,,,2,0,2,0,down,1.12544654869,AA,f,27,59.9875919575,Set,2017_12_21_1949,
"[3.0, 3.0]",4,0,11,11,27,,,,,0,0,0,0,down,0.875484641059,AA,f,27,59.9875919575,Set,2017_12_21_1949,
"[3.0, 3.0]",4,0,11,11,27,,,,,1,0,1,0,down,0.52546502254,AA,f,27,59.9875919575,Set,2017_12_21_1949,
"[2.9, 2.9]",5,0,12,12,22,,,,,0,0,0,0,down,0.725465180469,AA,f,27,59.9875919575,Set,2017_12_21_1949,
"[2.9, 2.9]",5,0,12,12,22,,,,,1,0,1,0,left,1.04217709729,AA,f,27,59.9875919575,Set,2017_12_21_1949,
"[2.9, 2.9]",5,0,12,12,22,,,,,2,0,2,0,down,0.442108333809,AA,f,27,59.9875919575,Set,2017_12_21_1949,
"[2.9, 2.9]",5,0,12,12,22,,,,,3,0,3,0,down,0.508780184784,AA,f,27,59.9875919575,Set,2017_12_21_1949,
"[2.7, 2.7]",4,0,13,13,9,,,,,0,0,0,0,left,0.542132886592,AA,f,27,59.9875919575,Set,2017_12_21_1949,
"[2.7, 2.7]",4,0,13,13,9,,,,,1,0,1,0,left,0.67543908814,AA,f,27,59.9875919575,Set,2017_12_21_1949,
"[2.7, 2.7]",4,0,13,13,9,,,,,2,0,2,0,down,0.292145320913,AA,f,27,59.9875919575,Set,2017_12_21_1949,
"[2.7, 2.7]",4,0,13,13,9,,,,,3,0,3,0,down,0.442120176041,AA,f,27,59.9875919575,Set,2017_12_21_1949,
"[2.9, 2.9]",4,0,14,14,21,,,,,0,0,0,0,left,0.658758987207,AA,f,27,59.9875919575,Set,2017_12_21_1949,
"[2.9, 2.9]",4,0,14,14,21,,,,,1,0,1,0,left,0.775447851396,AA,f,27,59.9875919575,Set,2017_12_21_1949,
"[2.9, 2.9]",4,0,14,14,21,,,,,2,0,2,0,left,0.458777776803,AA,f,27,59.9875919575,Set,2017_12_21_1949,
"[2.9, 2.9]",4,0,14,14,21,,,,,3,0,3,0,left,0.408783263643,AA,f,27,59.9875919575,Set,2017_12_21_1949,
"[2.9, 2.9]",4,0,14,14,21,,,,,4,0,4,0,down,0.692115636542,AA,f,27,59.9875919575,Set,2017_12_21_1949,
"[2.9, 2.9]",4,0,14,14,21,,,,,5,0,5,0,left,1.12544694345,AA,f,27,59.9875919575,Set,2017_12_21_1949,
"[2.9, 2.9]",4,0,14,14,21,,,,,6,0,6,0,left,0.842118912842,AA,f,27,59.9875919575,Set,2017_12_21_1949,
"[2.9, 2.9]",4,0,14,14,21,,,,,7,0,7,0,down,1.25877880305,AA,f,27,59.9875919575,Set,2017_12_21_1949,
"[2.9, 2.9]",4,0,14,14,21,,,,,8,0,8,0,down,0.342101544258,AA,f,27,59.9875919575,Set,2017_12_21_1949,
"[3.0, 3.0]",1,0,15,15,24,,,,,0,0,0,0,left,2.54210722854,AA,f,27,59.9875919575,Set,2017_12_21_1949,
"[3.0, 3.0]",1,0,15,15,24,,,,,1,0,1,0,down,1.3087725268,AA,f,27,59.9875919575,Set,2017_12_21_1949,
"[3.0, 3.0]",1,0,15,15,24,,,,,2,0,2,0,down,1.44212096545,AA,f,27,59.9875919575,Set,2017_12_21_1949,
"[2.7, 2.7]",3,0,16,16,8,,,,,0,0,0,0,left,0.958811724442,AA,f,27,59.9875919575,Set,2017_12_21_1949,
"[2.7, 2.7]",3,0,16,16,8,,,,,1,0,1,0,down,0.25878590846,AA,f,27,59.9875919575,Set,2017_12_21_1949,
"[2.7, 2.7]",3,0,16,16,8,,,,,2,0,2,0,down,0.0754780883435,AA,f,27,59.9875919575,Set,2017_12_21_1949,
"[2.8, 2.8]",3,0,17,17,14,,,,,0,0,0,0,left,0.616903602262,AA,f,27,59.9875919575,Set,2017_12_21_1949,
"[2.8, 2.8]",3,0,17,17,14,,,,,1,0,1,0,down,0.375492535881,AA,f,27,59.9875919575,Set,2017_12_21_1949,
"[2.8, 2.8]",3,0,17,17,14,,,,,2,0,2,0,right,0.492152978783,AA,f,27,59.9875919575,Set,2017_12_21_1949,
"[2.8, 2.8]",3,0,17,17,14,,,,,3,0,3,0,down,0.308762658271,AA,f,27,59.9875919575,Set,2017_12_21_1949,
"[2.8, 2.8]",3,0,17,17,14,,,,,4,0,4,0,down,0.642097439035,AA,f,27,59.9875919575,Set,2017_12_21_1949,
"[2.8, 2.8]",3,0,17,17,14,,,,,5,0,5,0,left,0.308776474092,AA,f,27,59.9875919575,Set,2017_12_21_1949,
"[2.8, 2.8]",3,0,17,17,14,,,,,6,0,6,0,down,0.358796250657,AA,f,27,59.9875919575,Set,2017_12_21_1949,
"[2.8, 2.8]",3,0,17,17,14,,,,,7,0,7,0,left,0.458789619035,AA,f,27,59.9875919575,Set,2017_12_21_1949,
"[2.8, 2.8]",3,0,17,17,14,,,,,8,0,8,0,left,0.375436482951,AA,f,27,59.9875919575,Set,2017_12_21_1949,
"[2.8, 2.8]",3,0,17,17,14,,,,,9,0,9,0,down,0.72533965332,AA,f,27,59.9875919575,Set,2017_12_21_1949,
"[2.8, 2.8]",3,0,17,17,14,,,,,10,0,10,0,down,0.500248685712,AA,f,27,59.9875919575,Set,2017_12_21_1949,
"[3.0, 3.0]",2,0,18,18,25,,,,,0,0,0,0,left,0.466909799725,AA,f,27,59.9875919575,Set,2017_12_21_1949,
"[3.0, 3.0]",2,0,18,18,25,,,,,1,0,1,0,down,0.342118518078,AA,f,27,59.9875919575,Set,2017_12_21_1949,
"[3.0, 3.0]",2,0,18,18,25,,,,,2,0,2,0,left,0.375470825122,AA,f,27,59.9875919575,Set,2017_12_21_1949,
"[3.0, 3.0]",2,0,18,18,25,,,,,3,0,3,0,down,0.408776947879,AA,f,27,59.9875919575,Set,2017_12_21_1949,
"[3.0, 3.0]",2,0,18,18,25,,,,,4,0,4,0,down,0.175483693718,AA,f,27,59.9875919575,Set,2017_12_21_1949,
"[3.0, 3.0]",3,0,19,19,26,,,,,0,0,0,0,left,0.442137939273,AA,f,27,59.9875919575,Set,2017_12_21_1949,
"[3.0, 3.0]",3,0,19,19,26,,,,,1,0,1,0,down,0.392125662882,AA,f,27,59.9875919575,Set,2017_12_21_1949,
"[3.0, 3.0]",3,0,19,19,26,,,,,2,0,2,0,left,0.4421245181,AA,f,27,59.9875919575,Set,2017_12_21_1949,
"[3.0, 3.0]",3,0,19,19,26,,,,,3,0,3,0,left,0.35880098748,AA,f,27,59.9875919575,Set,2017_12_21_1949,
"[3.0, 3.0]",3,0,19,19,26,,,,,4,0,4,0,down,0.458788434742,AA,f,27,59.9875919575,Set,2017_12_21_1949,
"[3.0, 3.0]",3,0,19,19,26,,,,,5,0,5,0,down,0.492124557612,AA,f,27,59.9875919575,Set,2017_12_21_1949,
"[2.8, 2.8]",2,0,20,20,13,,,,,0,0,0,0,down,0.516767733148,AA,f,27,59.9875919575,Set,2017_12_21_1949,
"[2.8, 2.8]",2,0,20,20,13,,,,,1,0,1,0,down,0.342148912954,AA,f,27,59.9875919575,Set,2017_12_21_1949,
"[2.7, 2.7]",5,0,21,21,10,,,,,0,0,0,0,left,0.683554532006,AA,f,27,59.9875919575,Set,2017_12_21_1949,
"[2.7, 2.7]",5,0,21,21,10,,,,,1,0,1,0,down,0.77545653563,AA,f,27,59.9875919575,Set,2017_12_21_1949,
"[2.7, 2.7]",5,0,21,21,10,,,,,2,0,2,0,left,0.725441890769,AA,f,27,59.9875919575,Set,2017_12_21_1949,
"[2.7, 2.7]",5,0,21,21,10,,,,,3,0,3,0,left,0.392145399819,AA,f,27,59.9875919575,Set,2017_12_21_1949,
"[2.7, 2.7]",5,0,21,21,10,,,,,4,0,4,0,left,0.392135926057,AA,f,27,59.9875919575,Set,2017_12_21_1949,
"[2.7, 2.7]",5,0,21,21,10,,,,,5,0,5,0,down,0.358773750486,AA,f,27,59.9875919575,Set,2017_12_21_1949,
"[2.7, 2.7]",5,0,21,21,10,,,,,6,0,6,0,left,0.558797197999,AA,f,27,59.9875919575,Set,2017_12_21_1949,
"[2.7, 2.7]",5,0,21,21,10,,,,,7,0,7,0,down,0.32543407497,AA,f,27,59.9875919575,Set,2017_12_21_1949,
"[2.7, 2.7]",5,0,21,21,10,,,,,8,0,8,0,down,0.258804066456,AA,f,27,59.9875919575,Set,2017_12_21_1949,
"[2.8, 2.8]",1,0,22,22,12,,,,,0,0,0,0,down,0.758793013752,AA,f,27,59.9875919575,Set,2017_12_21_1949,
"[2.8, 2.8]",1,0,22,22,12,,,,,1,0,1,0,down,0.408774974174,AA,f,27,59.9875919575,Set,2017_12_21_1949,
"[2.6, 2.6]",3,0,23,23,2,,,,,0,0,0,0,down,0.692105373251,AA,f,27,59.9875919575,Set,2017_12_21_1949,
"[2.6, 2.6]",3,0,23,23,2,,,,,1,0,1,0,down,0.308771342621,AA,f,27,59.9875919575,Set,2017_12_21_1949,
"[2.6, 2.6]",5,0,24,24,4,,,,,0,0,0,0,down,0.25882735604,AA,f,27,59.9875919575,Set,2017_12_21_1949,
"[2.6, 2.6]",5,0,24,24,4,,,,,1,0,1,0,down,0.325474338373,AA,f,27,59.9875919575,Set,2017_12_21_1949,
"[2.6, 2.6]",6,0,25,25,5,,,,,0,0,0,0,down,0.392218821333,AA,f,27,59.9875919575,Set,2017_12_21_1949,
"[2.6, 2.6]",6,0,25,25,5,,,,,1,0,1,0,down,0.108768421458,AA,f,27,59.9875919575,Set,2017_12_21_1949,
"[2.8, 2.8]",5,0,26,26,16,,,,,0,0,0,0,left,0.375520562404,AA,f,27,59.9875919575,Set,2017_12_21_1949,
"[2.8, 2.8]",5,0,26,26,16,,,,,1,0,1,0,left,0.458784487448,AA,f,27,59.9875919575,Set,2017_12_21_1949,
"[2.8, 2.8]",5,0,26,26,16,,,,,2,0,2,0,down,0.358793882187,AA,f,27,59.9875919575,Set,2017_12_21_1949,
"[2.8, 2.8]",5,0,26,26,16,,,,,3,0,3,0,down,0.408616683795,AA,f,27,59.9875919575,Set,2017_12_21_1949,
"[2.6, 2.6]",2,0,27,27,1,,,,,0,0,0,0,down,0.425444022403,AA,f,27,59.9875919575,Set,2017_12_21_1949,
"[2.6, 2.6]",2,0,27,27,1,,,,,1,0,1,0,down,0.408790368936,AA,f,27,59.9875919575,Set,2017_12_21_1949,
"[2.9, 2.9]",2,0,28,28,19,,,,,0,0,0,0,down,0.65879925061,AA,f,27,59.9875919575,Set,2017_12_21_1949,
"[2.9, 2.9]",2,0,28,28,19,,,,,1,0,1,0,down,0.292115715449,AA,f,27,59.9875919575,Set,2017_12_21_1949,
"[2.6, 2.6]",4,0,29,29,3,,,,,0,0,0,0,down,0.392129610293,AA,f,27,59.9875919575,Set,2017_12_21_1949,
"[2.6, 2.6]",4,0,29,29,3,,,,,1,0,1,0,down,0.208792184829,AA,f,27,59.9875919575,Set,2017_12_21_1949,
