size,n,trials_2.thisRepN,trials_2.thisTrialN,trials_2.thisN,trials_2.thisIndex,trials.thisRepN,trials.thisTrialN,trials.thisN,trials.thisIndex,trials_3.thisRepN,trials_3.thisTrialN,trials_3.thisN,trials_3.thisIndex,answer.keys,answer.rt,participant,gender,age,frameRate,expName,date,
"[3.0, 3.0]",4,0,0,0,27,,,,,0,0,0,0,right,13.4086620788,DG,m,20,59.9887283673,Set,2017_12_15_1659,
"[3.0, 3.0]",4,0,0,0,27,,,,,1,0,1,0,down,2.75875590826,DG,m,20,59.9887283673,Set,2017_12_15_1659,
"[3.0, 3.0]",4,0,0,0,27,,,,,2,0,2,0,right,1.17547224628,DG,m,20,59.9887283673,Set,2017_12_15_1659,
"[3.0, 3.0]",4,0,0,0,27,,,,,3,0,3,0,down,0.758793803223,DG,m,20,59.9887283673,Set,2017_12_15_1659,
"[3.0, 3.0]",4,0,0,0,27,,,,,4,0,4,0,right,2.25878630317,DG,m,20,59.9887283673,Set,2017_12_15_1659,
"[3.0, 3.0]",4,0,0,0,27,,,,,5,0,5,0,right,0.458874882665,DG,m,20,59.9887283673,Set,2017_12_15_1659,
"[3.0, 3.0]",4,0,0,0,27,,,,,6,0,6,0,right,0.542153413029,DG,m,20,59.9887283673,Set,2017_12_15_1659,
"[3.0, 3.0]",4,0,0,0,27,,,,,7,0,7,0,down,0.708821395499,DG,m,20,59.9887283673,Set,2017_12_15_1659,
"[3.0, 3.0]",4,0,0,0,27,,,,,8,0,8,0,right,0.40877457941,DG,m,20,59.9887283673,Set,2017_12_15_1659,
"[3.0, 3.0]",4,0,0,0,27,,,,,9,0,9,0,down,0.525470548921,DG,m,20,59.9887283673,Set,2017_12_15_1659,
"[3.0, 3.0]",4,0,0,0,27,,,,,10,0,10,0,right,0.37544319345,DG,m,20,59.9887283673,Set,2017_12_15_1659,
"[3.0, 3.0]",4,0,0,0,27,,,,,11,0,11,0,down,0.392141452437,DG,m,20,59.9887283673,Set,2017_12_15_1659,
"[3.0, 3.0]",4,0,0,0,27,,,,,12,0,12,0,right,0.392095662683,DG,m,20,59.9887283673,Set,2017_12_15_1659,
"[3.0, 3.0]",4,0,0,0,27,,,,,13,0,13,0,right,1.07544848297,DG,m,20,59.9887283673,Set,2017_12_15_1659,
"[3.0, 3.0]",4,0,0,0,27,,,,,14,0,14,0,down,0.342103517993,DG,m,20,59.9887283673,Set,2017_12_15_1659,
"[3.0, 3.0]",4,0,0,0,27,,,,,15,0,15,0,down,0.475450377737,DG,m,20,59.9887283673,Set,2017_12_15_1659,
"[3.0, 3.0]",4,0,0,0,27,,,,,16,0,16,0,right,0.342128386546,DG,m,20,59.9887283673,Set,2017_12_15_1659,
"[3.0, 3.0]",4,0,0,0,27,,,,,17,0,17,0,down,0.342128781282,DG,m,20,59.9887283673,Set,2017_12_15_1659,
"[3.0, 3.0]",4,0,0,0,27,,,,,18,0,18,0,down,1.12545286457,DG,m,20,59.9887283673,Set,2017_12_15_1659,
"[3.0, 3.0]",4,0,0,0,27,,,,,19,0,19,0,right,0.342119702313,DG,m,20,59.9887283673,Set,2017_12_15_1659,
"[3.0, 3.0]",4,0,0,0,27,,,,,20,0,20,0,down,0.492129294464,DG,m,20,59.9887283673,Set,2017_12_15_1659,
"[3.0, 3.0]",4,0,0,0,27,,,,,21,0,21,0,right,1.95875527669,DG,m,20,59.9887283673,Set,2017_12_15_1659,
"[3.0, 3.0]",4,0,0,0,27,,,,,22,0,22,0,down,0.516896023299,DG,m,20,59.9887283673,Set,2017_12_15_1659,
"[3.0, 3.0]",4,0,0,0,27,,,,,23,0,23,0,down,0.733522597642,DG,m,20,59.9887283673,Set,2017_12_15_1659,
"[2.9, 2.9]",3,0,1,1,20,,,,,0,0,0,0,down,0.475464588351,DG,m,20,59.9887283673,Set,2017_12_15_1659,
"[2.9, 2.9]",3,0,1,1,20,,,,,1,0,1,0,down,0.40876155303,DG,m,20,59.9887283673,Set,2017_12_15_1659,
"[2.9, 2.9]",3,0,1,1,20,,,,,2,0,2,0,right,0.37547319365,DG,m,20,59.9887283673,Set,2017_12_15_1659,
"[2.9, 2.9]",3,0,1,1,20,,,,,3,0,3,0,down,0.358815987565,DG,m,20,59.9887283673,Set,2017_12_15_1659,
"[2.9, 2.9]",3,0,1,1,20,,,,,4,0,4,0,right,0.325449075084,DG,m,20,59.9887283673,Set,2017_12_15_1659,
"[2.9, 2.9]",3,0,1,1,20,,,,,5,0,5,0,down,0.492111925938,DG,m,20,59.9887283673,Set,2017_12_15_1659,
"[2.9, 2.9]",3,0,1,1,20,,,,,6,0,6,0,down,0.375505167525,DG,m,20,59.9887283673,Set,2017_12_15_1659,
"[2.7, 2.7]",2,0,2,2,7,,,,,0,0,0,0,down,0.425457838282,DG,m,20,59.9887283673,Set,2017_12_15_1659,
"[2.7, 2.7]",2,0,2,2,7,,,,,1,0,1,0,down,1.09211555755,DG,m,20,59.9887283673,Set,2017_12_15_1659,
"[2.8, 2.8]",3,0,3,3,14,,,,,0,0,0,0,down,1.20024923835,DG,m,20,59.9887283673,Set,2017_12_15_1659,
"[2.8, 2.8]",3,0,3,3,14,,,,,1,0,1,0,down,0.592130162899,DG,m,20,59.9887283673,Set,2017_12_15_1659,
"[2.8, 2.8]",3,0,3,3,14,,,,,2,0,2,0,left,0.792118478596,DG,m,20,59.9887283673,Set,2017_12_15_1659,
"[2.8, 2.8]",3,0,3,3,14,,,,,3,0,3,0,right,0.54212814974,DG,m,20,59.9887283673,Set,2017_12_15_1659,
"[2.8, 2.8]",3,0,3,3,14,,,,,4,0,4,0,right,0.475453535648,DG,m,20,59.9887283673,Set,2017_12_15_1659,
"[2.8, 2.8]",3,0,3,3,14,,,,,5,0,5,0,left,1.02545199616,DG,m,20,59.9887283673,Set,2017_12_15_1659,
"[2.8, 2.8]",3,0,3,3,14,,,,,6,0,6,0,right,0.692205242289,DG,m,20,59.9887283673,Set,2017_12_15_1659,
"[2.8, 2.8]",3,0,3,3,14,,,,,7,0,7,0,down,0.458798303269,DG,m,20,59.9887283673,Set,2017_12_15_1659,
"[2.8, 2.8]",3,0,3,3,14,,,,,8,0,8,0,down,0.575478088431,DG,m,20,59.9887283673,Set,2017_12_15_1659,
"[3.0, 3.0]",6,0,4,4,29,,,,,0,0,0,0,left,0.908756816149,DG,m,20,59.9887283673,Set,2017_12_15_1659,
"[3.0, 3.0]",6,0,4,4,29,,,,,1,0,1,0,left,0.608778289985,DG,m,20,59.9887283673,Set,2017_12_15_1659,
"[3.0, 3.0]",6,0,4,4,29,,,,,2,0,2,0,down,0.425456259341,DG,m,20,59.9887283673,Set,2017_12_15_1659,
"[3.0, 3.0]",6,0,4,4,29,,,,,3,0,3,0,left,0.492152978812,DG,m,20,59.9887283673,Set,2017_12_15_1659,
"[3.0, 3.0]",6,0,4,4,29,,,,,4,0,4,0,down,0.475553799391,DG,m,20,59.9887283673,Set,2017_12_15_1659,
"[3.0, 3.0]",6,0,4,4,29,,,,,5,0,5,0,left,0.975435377652,DG,m,20,59.9887283673,Set,2017_12_15_1659,
"[3.0, 3.0]",6,0,4,4,29,,,,,6,0,6,0,down,2.19211366281,DG,m,20,59.9887283673,Set,2017_12_15_1659,
"[3.0, 3.0]",6,0,4,4,29,,,,,7,0,7,0,down,0.575448482967,DG,m,20,59.9887283673,Set,2017_12_15_1659,
"[3.0, 3.0]",6,0,4,4,29,,,,,8,0,8,0,left,0.458782118949,DG,m,20,59.9887283673,Set,2017_12_15_1659,
"[3.0, 3.0]",6,0,4,4,29,,,,,9,0,9,0,left,1.54212222865,DG,m,20,59.9887283673,Set,2017_12_15_1659,
"[3.0, 3.0]",6,0,4,4,29,,,,,10,0,10,0,down,0.425451917195,DG,m,20,59.9887283673,Set,2017_12_15_1659,
"[3.0, 3.0]",6,0,4,4,29,,,,,11,0,11,0,right,1.66688587854,DG,m,20,59.9887283673,Set,2017_12_15_1659,
"[3.0, 3.0]",6,0,4,4,29,,,,,12,0,12,0,down,0.392116583855,DG,m,20,59.9887283673,Set,2017_12_15_1659,
"[3.0, 3.0]",6,0,4,4,29,,,,,13,0,13,0,down,0.375472009444,DG,m,20,59.9887283673,Set,2017_12_15_1659,
"[2.9, 2.9]",2,0,5,5,19,,,,,0,0,0,0,left,0.75023546195,DG,m,20,59.9887283673,Set,2017_12_15_1659,
"[2.9, 2.9]",2,0,5,5,19,,,,,1,0,1,0,down,0.375442798715,DG,m,20,59.9887283673,Set,2017_12_15_1659,
"[2.9, 2.9]",2,0,5,5,19,,,,,2,0,2,0,down,0.375487799,DG,m,20,59.9887283673,Set,2017_12_15_1659,
"[3.0, 3.0]",2,0,6,6,25,,,,,0,0,0,0,left,0.53357375582,DG,m,20,59.9887283673,Set,2017_12_15_1659,
"[3.0, 3.0]",2,0,6,6,25,,,,,1,0,1,0,right,0.358784803189,DG,m,20,59.9887283673,Set,2017_12_15_1659,
"[3.0, 3.0]",2,0,6,6,25,,,,,2,0,2,0,down,0.525468575215,DG,m,20,59.9887283673,Set,2017_12_15_1659,
"[3.0, 3.0]",2,0,6,6,25,,,,,3,0,3,0,down,0.458788434771,DG,m,20,59.9887283673,Set,2017_12_15_1659,
"[3.0, 3.0]",2,0,6,6,25,,,,,4,0,4,0,right,0.775408772199,DG,m,20,59.9887283673,Set,2017_12_15_1659,
"[3.0, 3.0]",2,0,6,6,25,,,,,5,0,5,0,left,0.392106320622,DG,m,20,59.9887283673,Set,2017_12_15_1659,
"[3.0, 3.0]",2,0,6,6,25,,,,,6,0,6,0,down,0.475494588522,DG,m,20,59.9887283673,Set,2017_12_15_1659,
"[3.0, 3.0]",2,0,6,6,25,,,,,7,0,7,0,down,0.492137978727,DG,m,20,59.9887283673,Set,2017_12_15_1659,
"[3.0, 3.0]",2,0,6,6,25,,,,,8,0,8,0,left,0.59211950493,DG,m,20,59.9887283673,Set,2017_12_15_1659,
"[3.0, 3.0]",2,0,6,6,25,,,,,9,0,9,0,down,0.45879988221,DG,m,20,59.9887283673,Set,2017_12_15_1659,
"[3.0, 3.0]",2,0,6,6,25,,,,,10,0,10,0,left,0.508784526843,DG,m,20,59.9887283673,Set,2017_12_15_1659,
"[3.0, 3.0]",2,0,6,6,25,,,,,11,0,11,0,down,0.40878010579,DG,m,20,59.9887283673,Set,2017_12_15_1659,
"[3.0, 3.0]",2,0,6,6,25,,,,,12,0,12,0,down,0.442151755124,DG,m,20,59.9887283673,Set,2017_12_15_1659,
"[2.8, 2.8]",2,0,7,7,13,,,,,0,0,0,0,right,0.783560137352,DG,m,20,59.9887283673,Set,2017_12_15_1659,
"[2.8, 2.8]",2,0,7,7,13,,,,,1,0,1,0,down,1.57544571982,DG,m,20,59.9887283673,Set,2017_12_15_1659,
"[2.8, 2.8]",2,0,7,7,13,,,,,2,0,2,0,down,0.442160834122,DG,m,20,59.9887283673,Set,2017_12_15_1659,
"[2.8, 2.8]",4,0,8,8,15,,,,,0,0,0,0,down,0.89210316274,DG,m,20,59.9887283673,Set,2017_12_15_1659,
"[2.8, 2.8]",4,0,8,8,15,,,,,1,0,1,0,down,0.34214180769,DG,m,20,59.9887283673,Set,2017_12_15_1659,
"[2.6, 2.6]",1,0,9,9,0,,,,,0,0,0,0,down,0.49211982073,DG,m,20,59.9887283673,Set,2017_12_15_1659,
"[2.6, 2.6]",1,0,9,9,0,,,,,1,0,1,0,down,0.42548310163,DG,m,20,59.9887283673,Set,2017_12_15_1659,
"[2.7, 2.7]",6,0,10,10,11,,,,,0,0,0,0,down,0.575455193553,DG,m,20,59.9887283673,Set,2017_12_15_1659,
"[2.7, 2.7]",6,0,10,10,11,,,,,1,0,1,0,left,0.442115044367,DG,m,20,59.9887283673,Set,2017_12_15_1659,
"[2.7, 2.7]",6,0,10,10,11,,,,,2,0,2,0,right,0.475482746348,DG,m,20,59.9887283673,Set,2017_12_15_1659,
"[2.7, 2.7]",6,0,10,10,11,,,,,3,0,3,0,down,0.358815198095,DG,m,20,59.9887283673,Set,2017_12_15_1659,
"[2.7, 2.7]",6,0,10,10,11,,,,,4,0,4,0,left,0.492113899643,DG,m,20,59.9887283673,Set,2017_12_15_1659,
"[2.7, 2.7]",6,0,10,10,11,,,,,5,0,5,0,down,0.242107781174,DG,m,20,59.9887283673,Set,2017_12_15_1659,
"[2.7, 2.7]",6,0,10,10,11,,,,,6,0,6,0,down,0.308781211032,DG,m,20,59.9887283673,Set,2017_12_15_1659,
"[3.0, 3.0]",3,0,11,11,26,,,,,0,0,0,0,down,0.700253580464,DG,m,20,59.9887283673,Set,2017_12_15_1659,
"[3.0, 3.0]",3,0,11,11,26,,,,,1,0,1,0,left,0.975453535648,DG,m,20,59.9887283673,Set,2017_12_15_1659,
"[3.0, 3.0]",3,0,11,11,26,,,,,2,0,2,0,down,0.825471180462,DG,m,20,59.9887283673,Set,2017_12_15_1659,
"[3.0, 3.0]",3,0,11,11,26,,,,,3,0,3,0,down,0.525442127662,DG,m,20,59.9887283673,Set,2017_12_15_1659,
"[2.6, 2.6]",6,0,12,12,5,,,,,0,0,0,0,left,0.533583229582,DG,m,20,59.9887283673,Set,2017_12_15_1659,
"[2.6, 2.6]",6,0,12,12,5,,,,,1,0,1,0,left,0.425502443832,DG,m,20,59.9887283673,Set,2017_12_15_1659,
"[2.6, 2.6]",6,0,12,12,5,,,,,2,0,2,0,down,0.375469246268,DG,m,20,59.9887283673,Set,2017_12_15_1659,
"[2.6, 2.6]",6,0,12,12,5,,,,,3,0,3,0,down,0.308797395352,DG,m,20,59.9887283673,Set,2017_12_15_1659,
"[3.0, 3.0]",5,0,13,13,28,,,,,0,0,0,0,down,0.775434825016,DG,m,20,59.9887283673,Set,2017_12_15_1659,
"[3.0, 3.0]",5,0,13,13,28,,,,,1,0,1,0,left,0.458786066331,DG,m,20,59.9887283673,Set,2017_12_15_1659,
"[3.0, 3.0]",5,0,13,13,28,,,,,2,0,2,0,down,0.325442364527,DG,m,20,59.9887283673,Set,2017_12_15_1659,
"[3.0, 3.0]",5,0,13,13,28,,,,,3,0,3,0,down,1.60877868472,DG,m,20,59.9887283673,Set,2017_12_15_1659,
"[2.9, 2.9]",6,0,14,14,23,,,,,0,0,0,0,left,0.616891760117,DG,m,20,59.9887283673,Set,2017_12_15_1659,
"[2.9, 2.9]",6,0,14,14,23,,,,,1,0,1,0,left,0.425455864577,DG,m,20,59.9887283673,Set,2017_12_15_1659,
"[2.9, 2.9]",6,0,14,14,23,,,,,2,0,2,0,down,0.525426732842,DG,m,20,59.9887283673,Set,2017_12_15_1659,
"[2.9, 2.9]",6,0,14,14,23,,,,,3,0,3,0,left,0.475457877794,DG,m,20,59.9887283673,Set,2017_12_15_1659,
"[2.9, 2.9]",6,0,14,14,23,,,,,4,0,4,0,down,0.442123728659,DG,m,20,59.9887283673,Set,2017_12_15_1659,
"[2.9, 2.9]",6,0,14,14,23,,,,,5,0,5,0,down,0.342112991726,DG,m,20,59.9887283673,Set,2017_12_15_1659,
"[2.8, 2.8]",1,0,15,15,12,,,,,0,0,0,0,left,0.925443627668,DG,m,20,59.9887283673,Set,2017_12_15_1659,
"[2.8, 2.8]",1,0,15,15,12,,,,,1,0,1,0,down,0.65876925044,DG,m,20,59.9887283673,Set,2017_12_15_1659,
"[2.8, 2.8]",1,0,15,15,12,,,,,2,0,2,0,down,0.492166794691,DG,m,20,59.9887283673,Set,2017_12_15_1659,
"[2.7, 2.7]",5,0,16,16,10,,,,,0,0,0,0,down,0.558793250588,DG,m,20,59.9887283673,Set,2017_12_15_1659,
"[2.7, 2.7]",5,0,16,16,10,,,,,1,0,1,0,down,0.308796211117,DG,m,20,59.9887283673,Set,2017_12_15_1659,
"[2.8, 2.8]",5,0,17,17,16,,,,,0,0,0,0,left,1.54211117592,DG,m,20,59.9887283673,Set,2017_12_15_1659,
"[2.8, 2.8]",5,0,17,17,16,,,,,1,0,1,0,left,1.39216987367,DG,m,20,59.9887283673,Set,2017_12_15_1659,
"[2.8, 2.8]",5,0,17,17,16,,,,,2,0,2,0,down,0.475283797772,DG,m,20,59.9887283673,Set,2017_12_15_1659,
"[2.8, 2.8]",5,0,17,17,16,,,,,3,0,3,0,left,0.642120333883,DG,m,20,59.9887283673,Set,2017_12_15_1659,
"[2.8, 2.8]",5,0,17,17,16,,,,,4,0,4,0,left,1.27544271981,DG,m,20,59.9887283673,Set,2017_12_15_1659,
"[2.8, 2.8]",5,0,17,17,16,,,,,5,0,5,0,left,1.52543778555,DG,m,20,59.9887283673,Set,2017_12_15_1659,
"[2.8, 2.8]",5,0,17,17,16,,,,,6,0,6,0,down,0.842138649779,DG,m,20,59.9887283673,Set,2017_12_15_1659,
"[2.8, 2.8]",5,0,17,17,16,,,,,7,0,7,0,down,0.442105965369,DG,m,20,59.9887283673,Set,2017_12_15_1659,
"[2.7, 2.7]",1,0,18,18,6,,,,,0,0,0,0,down,0.858793092717,DG,m,20,59.9887283673,Set,2017_12_15_1659,
"[2.7, 2.7]",1,0,18,18,6,,,,,1,0,1,0,down,0.558776276797,DG,m,20,59.9887283673,Set,2017_12_15_1659,
"[2.7, 2.7]",1,0,18,18,6,,,,,2,0,2,0,left,0.758794197987,DG,m,20,59.9887283673,Set,2017_12_15_1659,
"[2.7, 2.7]",1,0,18,18,6,,,,,3,0,3,0,right,1.87544990404,DG,m,20,59.9887283673,Set,2017_12_15_1659,
"[2.7, 2.7]",1,0,18,18,6,,,,,4,0,4,0,left,0.442134781362,DG,m,20,59.9887283673,Set,2017_12_15_1659,
"[2.7, 2.7]",1,0,18,18,6,,,,,5,0,5,0,down,0.309018449305,DG,m,20,59.9887283673,Set,2017_12_15_1659,
"[2.7, 2.7]",1,0,18,18,6,,,,,6,0,6,0,down,0.542102491687,DG,m,20,59.9887283673,Set,2017_12_15_1659,
"[2.7, 2.7]",3,0,19,19,8,,,,,0,0,0,0,left,0.508713868534,DG,m,20,59.9887283673,Set,2017_12_15_1659,
"[2.7, 2.7]",3,0,19,19,8,,,,,1,0,1,0,right,0.467033353081,DG,m,20,59.9887283673,Set,2017_12_15_1659,
"[2.7, 2.7]",3,0,19,19,8,,,,,2,0,2,0,down,0.450241540937,DG,m,20,59.9887283673,Set,2017_12_15_1659,
"[2.7, 2.7]",3,0,19,19,8,,,,,3,0,3,0,down,0.366910904995,DG,m,20,59.9887283673,Set,2017_12_15_1659,
"[2.6, 2.6]",3,0,20,20,2,,,,,0,0,0,0,down,0.542129728681,DG,m,20,59.9887283673,Set,2017_12_15_1659,
"[2.6, 2.6]",3,0,20,20,2,,,,,1,0,1,0,down,0.325447890849,DG,m,20,59.9887283673,Set,2017_12_15_1659,
"[2.8, 2.8]",6,0,21,21,17,,,,,0,0,0,0,down,0.533576518996,DG,m,20,59.9887283673,Set,2017_12_15_1659,
"[2.8, 2.8]",6,0,21,21,17,,,,,1,0,1,0,down,0.308757131948,DG,m,20,59.9887283673,Set,2017_12_15_1659,
"[2.6, 2.6]",2,0,22,22,1,,,,,0,0,0,0,left,0.542126176035,DG,m,20,59.9887283673,Set,2017_12_15_1659,
"[2.6, 2.6]",2,0,22,22,1,,,,,1,0,1,0,down,0.34212641287,DG,m,20,59.9887283673,Set,2017_12_15_1659,
"[2.6, 2.6]",2,0,22,22,1,,,,,2,0,2,0,down,0.175475009455,DG,m,20,59.9887283673,Set,2017_12_15_1659,
"[2.6, 2.6]",2,0,22,22,1,,,,,3,0,3,0,left,0.425442443462,DG,m,20,59.9887283673,Set,2017_12_15_1659,
"[2.6, 2.6]",2,0,22,22,1,,,,,4,0,4,0,left,0.542121439154,DG,m,20,59.9887283673,Set,2017_12_15_1659,
"[2.6, 2.6]",2,0,22,22,1,,,,,5,0,5,0,down,0.375464509387,DG,m,20,59.9887283673,Set,2017_12_15_1659,
"[2.6, 2.6]",2,0,22,22,1,,,,,6,0,6,0,down,0.325449469819,DG,m,20,59.9887283673,Set,2017_12_15_1659,
"[2.6, 2.6]",5,0,23,23,4,,,,,0,0,0,0,down,0.416940944648,DG,m,20,59.9887283673,Set,2017_12_15_1659,
"[2.6, 2.6]",5,0,23,23,4,,,,,1,0,1,0,left,0.442109912779,DG,m,20,59.9887283673,Set,2017_12_15_1659,
"[2.6, 2.6]",5,0,23,23,4,,,,,2,0,2,0,down,2.89212684706,DG,m,20,59.9887283673,Set,2017_12_15_1659,
"[2.6, 2.6]",5,0,23,23,4,,,,,3,0,3,0,down,0.325451443525,DG,m,20,59.9887283673,Set,2017_12_15_1659,
"[2.9, 2.9]",4,0,24,24,21,,,,,0,0,0,0,left,0.425462969928,DG,m,20,59.9887283673,Set,2017_12_15_1659,
"[2.9, 2.9]",4,0,24,24,21,,,,,1,0,1,0,left,0.49214903143,DG,m,20,59.9887283673,Set,2017_12_15_1659,
"[2.9, 2.9]",4,0,24,24,21,,,,,2,0,2,0,down,0.492132847139,DG,m,20,59.9887283673,Set,2017_12_15_1659,
"[2.9, 2.9]",4,0,24,24,21,,,,,3,0,3,0,down,0.308793842705,DG,m,20,59.9887283673,Set,2017_12_15_1659,
"[2.9, 2.9]",4,0,24,24,21,,,,,4,0,4,0,left,0.342105886433,DG,m,20,59.9887283673,Set,2017_12_15_1659,
"[2.9, 2.9]",4,0,24,24,21,,,,,5,0,5,0,left,0.575481246342,DG,m,20,59.9887283673,Set,2017_12_15_1659,
"[2.9, 2.9]",4,0,24,24,21,,,,,6,0,6,0,down,0.825453022466,DG,m,20,59.9887283673,Set,2017_12_15_1659,
"[2.9, 2.9]",4,0,24,24,21,,,,,7,0,7,0,down,0.358837698208,DG,m,20,59.9887283673,Set,2017_12_15_1659,
"[3.0, 3.0]",1,0,25,25,24,,,,,0,0,0,0,down,0.558826408698,DG,m,20,59.9887283673,Set,2017_12_15_1659,
"[3.0, 3.0]",1,0,25,25,24,,,,,1,0,1,0,down,0.825439601351,DG,m,20,59.9887283673,Set,2017_12_15_1659,
"[2.9, 2.9]",1,0,26,26,18,,,,,0,0,0,0,down,0.57546032517,DG,m,20,59.9887283673,Set,2017_12_15_1659,
"[2.9, 2.9]",1,0,26,26,18,,,,,1,0,1,0,down,0.425457838312,DG,m,20,59.9887283673,Set,2017_12_15_1659,
"[2.9, 2.9]",5,0,27,27,22,,,,,0,0,0,0,down,0.458731987048,DG,m,20,59.9887283673,Set,2017_12_15_1659,
"[2.9, 2.9]",5,0,27,27,22,,,,,1,0,1,0,down,0.375464904122,DG,m,20,59.9887283673,Set,2017_12_15_1659,
"[2.7, 2.7]",4,0,28,28,9,,,,,0,0,0,0,down,0.342185229005,DG,m,20,59.9887283673,Set,2017_12_15_1659,
"[2.7, 2.7]",4,0,28,28,9,,,,,1,0,1,0,left,0.375456219859,DG,m,20,59.9887283673,Set,2017_12_15_1659,
"[2.7, 2.7]",4,0,28,28,9,,,,,2,0,2,0,down,0.275454167218,DG,m,20,59.9887283673,Set,2017_12_15_1659,
"[2.7, 2.7]",4,0,28,28,9,,,,,3,0,3,0,down,0.292133083974,DG,m,20,59.9887283673,Set,2017_12_15_1659,
"[2.6, 2.6]",4,0,29,29,3,,,,,0,0,0,0,down,0.483563453134,DG,m,20,59.9887283673,Set,2017_12_15_1659,
"[2.6, 2.6]",4,0,29,29,3,,,,,1,0,1,0,down,0.325449075084,DG,m,20,59.9887283673,Set,2017_12_15_1659,
