size,n,trials_2.thisRepN,trials_2.thisTrialN,trials_2.thisN,trials_2.thisIndex,trials.thisRepN,trials.thisTrialN,trials.thisN,trials.thisIndex,trials_3.thisRepN,trials_3.thisTrialN,trials_3.thisN,trials_3.thisIndex,answer.keys,answer.rt,participant,gender,age,frameRate,expName,date,
"[2.6, 2.6]",3,0,0,0,2,,,,,0,0,0,0,down,4.17544500928,ES,f,23,59.9965422905,Set,2017_12_15_1826,
"[2.6, 2.6]",3,0,0,0,2,,,,,1,0,1,0,left,2.57544453559,ES,f,23,59.9965422905,Set,2017_12_15_1826,
"[2.6, 2.6]",3,0,0,0,2,,,,,2,0,2,0,down,1.24223330826,ES,f,23,59.9965422905,Set,2017_12_15_1826,
"[2.6, 2.6]",3,0,0,0,2,,,,,3,0,3,0,right,2.60876723728,ES,f,23,59.9965422905,Set,2017_12_15_1826,
"[2.6, 2.6]",3,0,0,0,2,,,,,4,0,4,0,down,2.79229571653,ES,f,23,59.9965422905,Set,2017_12_15_1826,
"[2.6, 2.6]",3,0,0,0,2,,,,,5,0,5,0,down,0.750089803158,ES,f,23,59.9965422905,Set,2017_12_15_1826,
"[2.6, 2.6]",3,0,0,0,2,,,,,6,0,6,0,left,1.80877094783,ES,f,23,59.9965422905,Set,2017_12_15_1826,
"[2.6, 2.6]",3,0,0,0,2,,,,,7,0,7,0,right,1.09209818899,ES,f,23,59.9965422905,Set,2017_12_15_1826,
"[2.6, 2.6]",3,0,0,0,2,,,,,8,0,8,0,down,0.742109360144,ES,f,23,59.9965422905,Set,2017_12_15_1826,
"[2.6, 2.6]",3,0,0,0,2,,,,,9,0,9,0,down,0.625457601447,ES,f,23,59.9965422905,Set,2017_12_15_1826,
"[2.8, 2.8]",4,0,1,1,15,,,,,0,0,0,0,right,0.942129649717,ES,f,23,59.9965422905,Set,2017_12_15_1826,
"[2.8, 2.8]",4,0,1,1,15,,,,,1,0,1,0,right,1.22546123306,ES,f,23,59.9965422905,Set,2017_12_15_1826,
"[2.8, 2.8]",4,0,1,1,15,,,,,2,0,2,0,down,0.708784290036,ES,f,23,59.9965422905,Set,2017_12_15_1826,
"[2.8, 2.8]",4,0,1,1,15,,,,,3,0,3,0,down,0.875461746211,ES,f,23,59.9965422905,Set,2017_12_15_1826,
"[2.8, 2.8]",4,0,1,1,15,,,,,4,0,4,0,right,0.525446864543,ES,f,23,59.9965422905,Set,2017_12_15_1826,
"[2.8, 2.8]",4,0,1,1,15,,,,,5,0,5,0,left,0.658810698078,ES,f,23,59.9965422905,Set,2017_12_15_1826,
"[2.8, 2.8]",4,0,1,1,15,,,,,6,0,6,0,left,0.442126491835,ES,f,23,59.9965422905,Set,2017_12_15_1826,
"[2.8, 2.8]",4,0,1,1,15,,,,,7,0,7,0,right,0.525453969865,ES,f,23,59.9965422905,Set,2017_12_15_1826,
"[2.8, 2.8]",4,0,1,1,15,,,,,8,0,8,0,down,0.33360754553,ES,f,23,59.9965422905,Set,2017_12_15_1826,
"[2.8, 2.8]",4,0,1,1,15,,,,,9,0,9,0,left,0.525449627719,ES,f,23,59.9965422905,Set,2017_12_15_1826,
"[2.8, 2.8]",4,0,1,1,15,,,,,10,0,10,0,down,1.24212001811,ES,f,23,59.9965422905,Set,2017_12_15_1826,
"[2.8, 2.8]",4,0,1,1,15,,,,,11,0,11,0,right,0.392123294441,ES,f,23,59.9965422905,Set,2017_12_15_1826,
"[2.8, 2.8]",4,0,1,1,15,,,,,12,0,12,0,left,0.508785711048,ES,f,23,59.9965422905,Set,2017_12_15_1826,
"[2.8, 2.8]",4,0,1,1,15,,,,,13,0,13,0,left,0.450239172496,ES,f,23,59.9965422905,Set,2017_12_15_1826,
"[2.8, 2.8]",4,0,1,1,15,,,,,14,0,14,0,left,0.308856606222,ES,f,23,59.9965422905,Set,2017_12_15_1826,
"[2.8, 2.8]",4,0,1,1,15,,,,,15,0,15,0,down,0.475461825146,ES,f,23,59.9965422905,Set,2017_12_15_1826,
"[2.8, 2.8]",4,0,1,1,15,,,,,16,0,16,0,left,0.392122899677,ES,f,23,59.9965422905,Set,2017_12_15_1826,
"[2.8, 2.8]",4,0,1,1,15,,,,,17,0,17,0,left,0.475458667264,ES,f,23,59.9965422905,Set,2017_12_15_1826,
"[2.8, 2.8]",4,0,1,1,15,,,,,18,0,18,0,left,0.392128031322,ES,f,23,59.9965422905,Set,2017_12_15_1826,
"[2.8, 2.8]",4,0,1,1,15,,,,,19,0,19,0,left,0.341984306753,ES,f,23,59.9965422905,Set,2017_12_15_1826,
"[2.8, 2.8]",4,0,1,1,15,,,,,20,0,20,0,down,0.675445798755,ES,f,23,59.9965422905,Set,2017_12_15_1826,
"[2.8, 2.8]",4,0,1,1,15,,,,,21,0,21,0,right,0.475452746177,ES,f,23,59.9965422905,Set,2017_12_15_1826,
"[2.8, 2.8]",4,0,1,1,15,,,,,22,0,22,0,left,1.29213189974,ES,f,23,59.9965422905,Set,2017_12_15_1826,
"[2.8, 2.8]",4,0,1,1,15,,,,,23,0,23,0,right,0.975432614476,ES,f,23,59.9965422905,Set,2017_12_15_1826,
"[2.8, 2.8]",4,0,1,1,15,,,,,24,0,24,0,left,0.742118833878,ES,f,23,59.9965422905,Set,2017_12_15_1826,
"[2.8, 2.8]",4,0,1,1,15,,,,,25,0,25,0,left,0.308798974322,ES,f,23,59.9965422905,Set,2017_12_15_1826,
"[2.8, 2.8]",4,0,1,1,15,,,,,26,0,26,0,left,0.542127360241,ES,f,23,59.9965422905,Set,2017_12_15_1826,
"[2.8, 2.8]",4,0,1,1,15,,,,,27,0,27,0,left,0.842100360082,ES,f,23,59.9965422905,Set,2017_12_15_1826,
"[2.8, 2.8]",4,0,1,1,15,,,,,28,0,28,0,down,0.742114096996,ES,f,23,59.9965422905,Set,2017_12_15_1826,
"[2.8, 2.8]",4,0,1,1,15,,,,,29,0,29,0,left,0.358780461043,ES,f,23,59.9965422905,Set,2017_12_15_1826,
"[2.8, 2.8]",4,0,1,1,15,,,,,30,0,30,0,left,0.392103557475,ES,f,23,59.9965422905,Set,2017_12_15_1826,
"[2.8, 2.8]",4,0,1,1,15,,,,,31,0,31,0,down,0.692168926296,ES,f,23,59.9965422905,Set,2017_12_15_1826,
"[2.8, 2.8]",4,0,1,1,15,,,,,32,0,32,0,down,0.942114649632,ES,f,23,59.9965422905,Set,2017_12_15_1826,
"[2.8, 2.8]",4,0,1,1,15,,,,,33,0,33,0,left,0.742100675881,ES,f,23,59.9965422905,Set,2017_12_15_1826,
"[2.8, 2.8]",4,0,1,1,15,,,,,34,0,34,0,down,0.858789145306,ES,f,23,59.9965422905,Set,2017_12_15_1826,
"[2.8, 2.8]",4,0,1,1,15,,,,,35,0,35,0,down,0.525462654099,ES,f,23,59.9965422905,Set,2017_12_15_1826,
"[3.0, 3.0]",3,0,2,2,26,,,,,0,0,0,0,left,0.666907983919,ES,f,23,59.9965422905,Set,2017_12_15_1826,
"[3.0, 3.0]",3,0,2,2,26,,,,,1,0,1,0,left,1.05875693457,ES,f,23,59.9965422905,Set,2017_12_15_1826,
"[3.0, 3.0]",3,0,2,2,26,,,,,2,0,2,0,down,1.07545835146,ES,f,23,59.9965422905,Set,2017_12_15_1826,
"[3.0, 3.0]",3,0,2,2,26,,,,,3,0,3,0,down,0.842127991811,ES,f,23,59.9965422905,Set,2017_12_15_1826,
"[2.9, 2.9]",1,0,3,3,18,,,,,0,0,0,0,left,0.96691019446,ES,f,23,59.9965422905,Set,2017_12_15_1826,
"[2.9, 2.9]",1,0,3,3,18,,,,,1,0,1,0,left,0.525491864828,ES,f,23,59.9965422905,Set,2017_12_15_1826,
"[2.9, 2.9]",1,0,3,3,18,,,,,2,0,2,0,down,0.508767553052,ES,f,23,59.9965422905,Set,2017_12_15_1826,
"[2.9, 2.9]",1,0,3,3,18,,,,,3,0,3,0,left,0.375450298772,ES,f,23,59.9965422905,Set,2017_12_15_1826,
"[2.9, 2.9]",1,0,3,3,18,,,,,4,0,4,0,down,0.492100873234,ES,f,23,59.9965422905,Set,2017_12_15_1826,
"[2.9, 2.9]",1,0,3,3,18,,,,,5,0,5,0,left,0.692138136626,ES,f,23,59.9965422905,Set,2017_12_15_1826,
"[2.9, 2.9]",1,0,3,3,18,,,,,6,0,6,0,left,0.492138373462,ES,f,23,59.9965422905,Set,2017_12_15_1826,
"[2.9, 2.9]",1,0,3,3,18,,,,,7,0,7,0,down,0.39211934706,ES,f,23,59.9965422905,Set,2017_12_15_1826,
"[2.9, 2.9]",1,0,3,3,18,,,,,8,0,8,0,down,1.30869002629,ES,f,23,59.9965422905,Set,2017_12_15_1826,
"[2.9, 2.9]",1,0,3,3,18,,,,,9,0,9,0,left,0.566909483925,ES,f,23,59.9965422905,Set,2017_12_15_1826,
"[2.9, 2.9]",1,0,3,3,18,,,,,10,0,10,0,left,0.533574545319,ES,f,23,59.9965422905,Set,2017_12_15_1826,
"[2.9, 2.9]",1,0,3,3,18,,,,,11,0,11,0,right,0.550259383162,ES,f,23,59.9965422905,Set,2017_12_15_1826,
"[2.9, 2.9]",1,0,3,3,18,,,,,12,0,12,0,down,0.742127123405,ES,f,23,59.9965422905,Set,2017_12_15_1826,
"[2.9, 2.9]",1,0,3,3,18,,,,,13,0,13,0,down,0.425455075136,ES,f,23,59.9965422905,Set,2017_12_15_1826,
"[3.0, 3.0]",6,0,4,4,29,,,,,0,0,0,0,left,0.65878464526,ES,f,23,59.9965422905,Set,2017_12_15_1826,
"[3.0, 3.0]",6,0,4,4,29,,,,,1,0,1,0,down,0.508856369386,ES,f,23,59.9965422905,Set,2017_12_15_1826,
"[3.0, 3.0]",6,0,4,4,29,,,,,2,0,2,0,down,0.458784092625,ES,f,23,59.9965422905,Set,2017_12_15_1826,
"[3.0, 3.0]",6,0,4,4,29,,,,,3,0,3,0,left,0.592117925989,ES,f,23,59.9965422905,Set,2017_12_15_1826,
"[3.0, 3.0]",6,0,4,4,29,,,,,4,0,4,0,left,0.375425824925,ES,f,23,59.9965422905,Set,2017_12_15_1826,
"[3.0, 3.0]",6,0,4,4,29,,,,,5,0,5,0,down,0.408831816603,ES,f,23,59.9965422905,Set,2017_12_15_1826,
"[3.0, 3.0]",6,0,4,4,29,,,,,6,0,6,0,right,0.492111136467,ES,f,23,59.9965422905,Set,2017_12_15_1826,
"[3.0, 3.0]",6,0,4,4,29,,,,,7,0,7,0,left,0.508798342722,ES,f,23,59.9965422905,Set,2017_12_15_1826,
"[3.0, 3.0]",6,0,4,4,29,,,,,8,0,8,0,left,0.391942898597,ES,f,23,59.9965422905,Set,2017_12_15_1826,
"[3.0, 3.0]",6,0,4,4,29,,,,,9,0,9,0,down,0.608773947839,ES,f,23,59.9965422905,Set,2017_12_15_1826,
"[3.0, 3.0]",6,0,4,4,29,,,,,10,0,10,0,left,0.358794276923,ES,f,23,59.9965422905,Set,2017_12_15_1826,
"[3.0, 3.0]",6,0,4,4,29,,,,,11,0,11,0,left,0.375487799,ES,f,23,59.9965422905,Set,2017_12_15_1826,
"[3.0, 3.0]",6,0,4,4,29,,,,,12,0,12,0,left,0.392203031777,ES,f,23,59.9965422905,Set,2017_12_15_1826,
"[3.0, 3.0]",6,0,4,4,29,,,,,13,0,13,0,left,0.408793526905,ES,f,23,59.9965422905,Set,2017_12_15_1826,
"[3.0, 3.0]",6,0,4,4,29,,,,,14,0,14,0,down,0.508785316313,ES,f,23,59.9965422905,Set,2017_12_15_1826,
"[3.0, 3.0]",6,0,4,4,29,,,,,15,0,15,0,left,0.642115597002,ES,f,23,59.9965422905,Set,2017_12_15_1826,
"[3.0, 3.0]",6,0,4,4,29,,,,,16,0,16,0,left,0.508792816399,ES,f,23,59.9965422905,Set,2017_12_15_1826,
"[3.0, 3.0]",6,0,4,4,29,,,,,17,0,17,0,down,0.425458627782,ES,f,23,59.9965422905,Set,2017_12_15_1826,
"[3.0, 3.0]",6,0,4,4,29,,,,,18,0,18,0,down,0.425476785778,ES,f,23,59.9965422905,Set,2017_12_15_1826,
"[2.9, 2.9]",6,0,5,5,23,,,,,0,0,0,0,left,0.866912089201,ES,f,23,59.9965422905,Set,2017_12_15_1826,
"[2.9, 2.9]",6,0,5,5,23,,,,,1,0,1,0,left,0.692115636484,ES,f,23,59.9965422905,Set,2017_12_15_1826,
"[2.9, 2.9]",6,0,5,5,23,,,,,2,0,2,0,down,0.375540299341,ES,f,23,59.9965422905,Set,2017_12_15_1826,
"[2.9, 2.9]",6,0,5,5,23,,,,,3,0,3,0,down,0.325434469734,ES,f,23,59.9965422905,Set,2017_12_15_1826,
"[2.9, 2.9]",6,0,5,5,23,,,,,4,0,4,0,right,1.47547090417,ES,f,23,59.9965422905,Set,2017_12_15_1826,
"[2.9, 2.9]",6,0,5,5,23,,,,,5,0,5,0,left,0.525448838249,ES,f,23,59.9965422905,Set,2017_12_15_1826,
"[2.9, 2.9]",6,0,5,5,23,,,,,6,0,6,0,down,0.542156176205,ES,f,23,59.9965422905,Set,2017_12_15_1826,
"[2.9, 2.9]",6,0,5,5,23,,,,,7,0,7,0,down,0.408830632397,ES,f,23,59.9965422905,Set,2017_12_15_1826,
"[2.9, 2.9]",6,0,5,5,23,,,,,8,0,8,0,left,0.558797592734,ES,f,23,59.9965422905,Set,2017_12_15_1826,
"[2.9, 2.9]",6,0,5,5,23,,,,,9,0,9,0,down,0.542127360241,ES,f,23,59.9965422905,Set,2017_12_15_1826,
"[2.9, 2.9]",6,0,5,5,23,,,,,10,0,10,0,down,0.675445009256,ES,f,23,59.9965422905,Set,2017_12_15_1826,
"[2.8, 2.8]",2,0,6,6,13,,,,,0,0,0,0,down,1.02543225919,ES,f,23,59.9965422905,Set,2017_12_15_1826,
"[2.8, 2.8]",2,0,6,6,13,,,,,1,0,1,0,down,0.425456259341,ES,f,23,59.9965422905,Set,2017_12_15_1826,
"[2.9, 2.9]",5,0,7,7,22,,,,,0,0,0,0,down,0.575459930405,ES,f,23,59.9965422905,Set,2017_12_15_1826,
"[2.9, 2.9]",5,0,7,7,22,,,,,1,0,1,0,down,0.425487838482,ES,f,23,59.9965422905,Set,2017_12_15_1826,
"[2.9, 2.9]",5,0,7,7,22,,,,,2,0,2,0,left,0.492122978641,ES,f,23,59.9965422905,Set,2017_12_15_1826,
"[2.9, 2.9]",5,0,7,7,22,,,,,3,0,3,0,down,0.458785671595,ES,f,23,59.9965422905,Set,2017_12_15_1826,
"[2.9, 2.9]",5,0,7,7,22,,,,,4,0,4,0,left,1.19211405751,ES,f,23,59.9965422905,Set,2017_12_15_1826,
"[2.9, 2.9]",5,0,7,7,22,,,,,5,0,5,0,down,0.392139873467,ES,f,23,59.9965422905,Set,2017_12_15_1826,
"[2.9, 2.9]",5,0,7,7,22,,,,,6,0,6,0,down,0.425446390873,ES,f,23,59.9965422905,Set,2017_12_15_1826,
"[2.9, 2.9]",5,0,7,7,22,,,,,7,0,7,0,left,0.725432417094,ES,f,23,59.9965422905,Set,2017_12_15_1826,
"[2.9, 2.9]",5,0,7,7,22,,,,,8,0,8,0,down,0.508808211191,ES,f,23,59.9965422905,Set,2017_12_15_1826,
"[2.9, 2.9]",5,0,7,7,22,,,,,9,0,9,0,down,0.492141531402,ES,f,23,59.9965422905,Set,2017_12_15_1826,
"[2.6, 2.6]",6,0,8,8,5,,,,,0,0,0,0,down,0.466924010339,ES,f,23,59.9965422905,Set,2017_12_15_1826,
"[2.6, 2.6]",6,0,8,8,5,,,,,1,0,1,0,down,1.07547808843,ES,f,23,59.9965422905,Set,2017_12_15_1826,
"[3.0, 3.0]",5,0,9,9,28,,,,,0,0,0,0,left,1.7588466983,ES,f,23,59.9965422905,Set,2017_12_15_1826,
"[3.0, 3.0]",5,0,9,9,28,,,,,1,0,1,0,down,0.475462219882,ES,f,23,59.9965422905,Set,2017_12_15_1826,
"[3.0, 3.0]",5,0,9,9,28,,,,,2,0,2,0,down,0.32545104879,ES,f,23,59.9965422905,Set,2017_12_15_1826,
"[2.6, 2.6]",1,0,10,10,0,,,,,0,0,0,0,down,0.666897720686,ES,f,23,59.9965422905,Set,2017_12_15_1826,
"[2.6, 2.6]",1,0,10,10,0,,,,,1,0,1,0,down,0.616884260089,ES,f,23,59.9965422905,Set,2017_12_15_1826,
"[2.8, 2.8]",1,0,11,11,12,,,,,0,0,0,0,down,0.7754004827,ES,f,23,59.9965422905,Set,2017_12_15_1826,
"[2.8, 2.8]",1,0,11,11,12,,,,,1,0,1,0,down,0.416895549628,ES,f,23,59.9965422905,Set,2017_12_15_1826,
"[2.8, 2.8]",1,0,11,11,12,,,,,2,0,2,0,left,0.63354738726,ES,f,23,59.9965422905,Set,2017_12_15_1826,
"[2.8, 2.8]",1,0,11,11,12,,,,,3,0,3,0,left,0.483580426924,ES,f,23,59.9965422905,Set,2017_12_15_1826,
"[2.8, 2.8]",1,0,11,11,12,,,,,4,0,4,0,down,1.20031989666,ES,f,23,59.9965422905,Set,2017_12_15_1826,
"[2.8, 2.8]",1,0,11,11,12,,,,,5,0,5,0,down,0.525463048834,ES,f,23,59.9965422905,Set,2017_12_15_1826,
"[2.8, 2.8]",1,0,11,11,12,,,,,6,0,6,0,left,0.592112399638,ES,f,23,59.9965422905,Set,2017_12_15_1826,
"[2.8, 2.8]",1,0,11,11,12,,,,,7,0,7,0,down,0.925449548784,ES,f,23,59.9965422905,Set,2017_12_15_1826,
"[2.8, 2.8]",1,0,11,11,12,,,,,8,0,8,0,down,1.00881334284,ES,f,23,59.9965422905,Set,2017_12_15_1826,
"[2.6, 2.6]",4,0,12,12,3,,,,,0,0,0,0,down,0.492118241789,ES,f,23,59.9965422905,Set,2017_12_15_1826,
"[2.6, 2.6]",4,0,12,12,3,,,,,1,0,1,0,down,0.575461904111,ES,f,23,59.9965422905,Set,2017_12_15_1826,
"[2.8, 2.8]",6,0,13,13,17,,,,,0,0,0,0,left,1.36696972113,ES,f,23,59.9965422905,Set,2017_12_15_1826,
"[2.8, 2.8]",6,0,13,13,17,,,,,1,0,1,0,left,0.842137860309,ES,f,23,59.9965422905,Set,2017_12_15_1826,
"[2.8, 2.8]",6,0,13,13,17,,,,,2,0,2,0,down,1.14211836018,ES,f,23,59.9965422905,Set,2017_12_15_1826,
"[2.8, 2.8]",6,0,13,13,17,,,,,3,0,3,0,down,2.17543237761,ES,f,23,59.9965422905,Set,2017_12_15_1826,
"[2.8, 2.8]",3,0,14,14,14,,,,,0,0,0,0,left,0.783584216435,ES,f,23,59.9965422905,Set,2017_12_15_1826,
"[2.8, 2.8]",3,0,14,14,14,,,,,1,0,1,0,down,0.575446904026,ES,f,23,59.9965422905,Set,2017_12_15_1826,
"[2.8, 2.8]",3,0,14,14,14,,,,,2,0,2,0,left,0.858772566251,ES,f,23,59.9965422905,Set,2017_12_15_1826,
"[2.8, 2.8]",3,0,14,14,14,,,,,3,0,3,0,down,0.35879940851,ES,f,23,59.9965422905,Set,2017_12_15_1826,
"[2.8, 2.8]",3,0,14,14,14,,,,,4,0,4,0,down,0.575455588289,ES,f,23,59.9965422905,Set,2017_12_15_1826,
"[2.8, 2.8]",3,0,14,14,14,,,,,5,0,5,0,left,0.475458272529,ES,f,23,59.9965422905,Set,2017_12_15_1826,
"[2.8, 2.8]",3,0,14,14,14,,,,,6,0,6,0,down,0.525469759421,ES,f,23,59.9965422905,Set,2017_12_15_1826,
"[2.8, 2.8]",3,0,14,14,14,,,,,7,0,7,0,left,0.416922786651,ES,f,23,59.9965422905,Set,2017_12_15_1826,
"[2.8, 2.8]",3,0,14,14,14,,,,,8,0,8,0,down,0.475451167207,ES,f,23,59.9965422905,Set,2017_12_15_1826,
"[2.8, 2.8]",3,0,14,14,14,,,,,9,0,9,0,down,0.342156807805,ES,f,23,59.9965422905,Set,2017_12_15_1826,
"[2.7, 2.7]",3,0,15,15,8,,,,,0,0,0,0,down,0.492120610201,ES,f,23,59.9965422905,Set,2017_12_15_1826,
"[2.7, 2.7]",3,0,15,15,8,,,,,1,0,1,0,down,0.608788158454,ES,f,23,59.9965422905,Set,2017_12_15_1826,
"[2.9, 2.9]",2,0,16,16,19,,,,,0,0,0,0,left,0.925451127725,ES,f,23,59.9965422905,Set,2017_12_15_1826,
"[2.9, 2.9]",2,0,16,16,19,,,,,1,0,1,0,down,0.492123373377,ES,f,23,59.9965422905,Set,2017_12_15_1826,
"[2.9, 2.9]",2,0,16,16,19,,,,,2,0,2,0,left,0.79211729439,ES,f,23,59.9965422905,Set,2017_12_15_1826,
"[2.9, 2.9]",2,0,16,16,19,,,,,3,0,3,0,down,0.608784605807,ES,f,23,59.9965422905,Set,2017_12_15_1826,
"[2.9, 2.9]",2,0,16,16,19,,,,,4,0,4,0,down,0.475441693474,ES,f,23,59.9965422905,Set,2017_12_15_1826,
"[2.9, 2.9]",2,0,16,16,19,,,,,5,0,5,0,left,0.458784092625,ES,f,23,59.9965422905,Set,2017_12_15_1826,
"[2.9, 2.9]",2,0,16,16,19,,,,,6,0,6,0,left,0.40880852699,ES,f,23,59.9965422905,Set,2017_12_15_1826,
"[2.9, 2.9]",2,0,16,16,19,,,,,7,0,7,0,left,0.558781408414,ES,f,23,59.9965422905,Set,2017_12_15_1826,
"[2.9, 2.9]",2,0,16,16,19,,,,,8,0,8,0,left,0.275441930309,ES,f,23,59.9965422905,Set,2017_12_15_1826,
"[2.9, 2.9]",2,0,16,16,19,,,,,9,0,9,0,left,0.392156057787,ES,f,23,59.9965422905,Set,2017_12_15_1826,
"[2.9, 2.9]",2,0,16,16,19,,,,,10,0,10,0,down,0.442121360189,ES,f,23,59.9965422905,Set,2017_12_15_1826,
"[2.9, 2.9]",2,0,16,16,19,,,,,11,0,11,0,down,0.37544477242,ES,f,23,59.9965422905,Set,2017_12_15_1826,
"[2.9, 2.9]",4,0,17,17,21,,,,,0,0,0,0,left,0.57544256188,ES,f,23,59.9965422905,Set,2017_12_15_1826,
"[2.9, 2.9]",4,0,17,17,21,,,,,1,0,1,0,down,0.392156847258,ES,f,23,59.9965422905,Set,2017_12_15_1826,
"[2.9, 2.9]",4,0,17,17,21,,,,,2,0,2,0,down,0.425430206553,ES,f,23,59.9965422905,Set,2017_12_15_1826,
"[2.9, 2.9]",4,0,17,17,21,,,,,3,0,3,0,left,0.408618262707,ES,f,23,59.9965422905,Set,2017_12_15_1826,
"[2.9, 2.9]",4,0,17,17,21,,,,,4,0,4,0,down,0.408778921555,ES,f,23,59.9965422905,Set,2017_12_15_1826,
"[2.9, 2.9]",4,0,17,17,21,,,,,5,0,5,0,down,0.358782434749,ES,f,23,59.9965422905,Set,2017_12_15_1826,
"[2.9, 2.9]",4,0,17,17,21,,,,,6,0,6,0,left,0.342165886774,ES,f,23,59.9965422905,Set,2017_12_15_1826,
"[2.9, 2.9]",4,0,17,17,21,,,,,7,0,7,0,down,0.225460443588,ES,f,23,59.9965422905,Set,2017_12_15_1826,
"[2.9, 2.9]",4,0,17,17,21,,,,,8,0,8,0,down,0.25878432949,ES,f,23,59.9965422905,Set,2017_12_15_1826,
"[2.7, 2.7]",4,0,18,18,9,,,,,0,0,0,0,left,0.558778645267,ES,f,23,59.9965422905,Set,2017_12_15_1826,
"[2.7, 2.7]",4,0,18,18,9,,,,,1,0,1,0,down,0.425432180258,ES,f,23,59.9965422905,Set,2017_12_15_1826,
"[2.7, 2.7]",4,0,18,18,9,,,,,2,0,2,0,down,0.375463325152,ES,f,23,59.9965422905,Set,2017_12_15_1826,
"[2.7, 2.7]",4,0,18,18,9,,,,,3,0,3,0,left,0.442136755039,ES,f,23,59.9965422905,Set,2017_12_15_1826,
"[2.7, 2.7]",4,0,18,18,9,,,,,4,0,4,0,left,0.408783263672,ES,f,23,59.9965422905,Set,2017_12_15_1826,
"[2.7, 2.7]",4,0,18,18,9,,,,,5,0,5,0,left,0.258748802938,ES,f,23,59.9965422905,Set,2017_12_15_1826,
"[2.7, 2.7]",4,0,18,18,9,,,,,6,0,6,0,left,0.275463640952,ES,f,23,59.9965422905,Set,2017_12_15_1826,
"[2.7, 2.7]",4,0,18,18,9,,,,,7,0,7,0,left,0.308774500474,ES,f,23,59.9965422905,Set,2017_12_15_1826,
"[2.7, 2.7]",4,0,18,18,9,,,,,8,0,8,0,down,0.308785158442,ES,f,23,59.9965422905,Set,2017_12_15_1826,
"[2.7, 2.7]",4,0,18,18,9,,,,,9,0,9,0,left,0.458805408562,ES,f,23,59.9965422905,Set,2017_12_15_1826,
"[2.7, 2.7]",4,0,18,18,9,,,,,10,0,10,0,left,0.358799803274,ES,f,23,59.9965422905,Set,2017_12_15_1826,
"[2.7, 2.7]",4,0,18,18,9,,,,,11,0,11,0,down,0.625299705745,ES,f,23,59.9965422905,Set,2017_12_15_1826,
"[2.7, 2.7]",4,0,18,18,9,,,,,12,0,12,0,down,0.508826763951,ES,f,23,59.9965422905,Set,2017_12_15_1826,
"[2.7, 2.7]",6,0,19,19,11,,,,,0,0,0,0,left,0.475447614532,ES,f,23,59.9965422905,Set,2017_12_15_1826,
"[2.7, 2.7]",6,0,19,19,11,,,,,1,0,1,0,down,0.425455864606,ES,f,23,59.9965422905,Set,2017_12_15_1826,
"[2.7, 2.7]",6,0,19,19,11,,,,,2,0,2,0,left,0.642149544583,ES,f,23,59.9965422905,Set,2017_12_15_1826,
"[2.7, 2.7]",6,0,19,19,11,,,,,3,0,3,0,down,0.358803355921,ES,f,23,59.9965422905,Set,2017_12_15_1826,
"[2.7, 2.7]",6,0,19,19,11,,,,,4,0,4,0,left,0.442126491806,ES,f,23,59.9965422905,Set,2017_12_15_1826,
"[2.7, 2.7]",6,0,19,19,11,,,,,5,0,5,0,left,0.275527983467,ES,f,23,59.9965422905,Set,2017_12_15_1826,
"[2.7, 2.7]",6,0,19,19,11,,,,,6,0,6,0,left,0.258825777099,ES,f,23,59.9965422905,Set,2017_12_15_1826,
"[2.7, 2.7]",6,0,19,19,11,,,,,7,0,7,0,left,0.292124004947,ES,f,23,59.9965422905,Set,2017_12_15_1826,
"[2.7, 2.7]",6,0,19,19,11,,,,,8,0,8,0,down,0.675297771551,ES,f,23,59.9965422905,Set,2017_12_15_1826,
"[2.7, 2.7]",6,0,19,19,11,,,,,9,0,9,0,left,0.47545985147,ES,f,23,59.9965422905,Set,2017_12_15_1826,
"[2.7, 2.7]",6,0,19,19,11,,,,,10,0,10,0,left,1.17546237781,ES,f,23,59.9965422905,Set,2017_12_15_1826,
"[2.7, 2.7]",6,0,19,19,11,,,,,11,0,11,0,left,0.575492693781,ES,f,23,59.9965422905,Set,2017_12_15_1826,
"[2.7, 2.7]",6,0,19,19,11,,,,,12,0,12,0,down,0.392131189205,ES,f,23,59.9965422905,Set,2017_12_15_1826,
"[2.7, 2.7]",6,0,19,19,11,,,,,13,0,13,0,down,0.525462654128,ES,f,23,59.9965422905,Set,2017_12_15_1826,
"[2.8, 2.8]",5,0,20,20,16,,,,,0,0,0,0,right,2.50880465857,ES,f,23,59.9965422905,Set,2017_12_15_1826,
"[2.8, 2.8]",5,0,20,20,16,,,,,1,0,1,0,down,0.70883915876,ES,f,23,59.9965422905,Set,2017_12_15_1826,
"[2.8, 2.8]",5,0,20,20,16,,,,,2,0,2,0,left,0.52545357513,ES,f,23,59.9965422905,Set,2017_12_15_1826,
"[2.8, 2.8]",5,0,20,20,16,,,,,3,0,3,0,left,0.225446232973,ES,f,23,59.9965422905,Set,2017_12_15_1826,
"[2.8, 2.8]",5,0,20,20,16,,,,,4,0,4,0,down,0.292121636536,ES,f,23,59.9965422905,Set,2017_12_15_1826,
"[2.8, 2.8]",5,0,20,20,16,,,,,5,0,5,0,down,0.342131939222,ES,f,23,59.9965422905,Set,2017_12_15_1826,
"[2.6, 2.6]",2,0,21,21,1,,,,,0,0,0,0,right,1.68356084789,ES,f,23,59.9965422905,Set,2017_12_15_1826,
"[2.6, 2.6]",2,0,21,21,1,,,,,1,0,1,0,left,0.325462101493,ES,f,23,59.9965422905,Set,2017_12_15_1826,
"[2.6, 2.6]",2,0,21,21,1,,,,,2,0,2,0,left,0.342132333957,ES,f,23,59.9965422905,Set,2017_12_15_1826,
"[2.6, 2.6]",2,0,21,21,1,,,,,3,0,3,0,left,0.225553602038,ES,f,23,59.9965422905,Set,2017_12_15_1826,
"[2.6, 2.6]",2,0,21,21,1,,,,,4,0,4,0,left,0.192142478743,ES,f,23,59.9965422905,Set,2017_12_15_1826,
"[2.6, 2.6]",2,0,21,21,1,,,,,5,0,5,0,down,0.458770276775,ES,f,23,59.9965422905,Set,2017_12_15_1826,
"[2.6, 2.6]",2,0,21,21,1,,,,,6,0,6,0,left,0.258798540104,ES,f,23,59.9965422905,Set,2017_12_15_1826,
"[2.6, 2.6]",2,0,21,21,1,,,,,7,0,7,0,down,0.325449075084,ES,f,23,59.9965422905,Set,2017_12_15_1826,
"[2.6, 2.6]",2,0,21,21,1,,,,,8,0,8,0,down,0.358800592745,ES,f,23,59.9965422905,Set,2017_12_15_1826,
"[2.6, 2.6]",2,0,21,21,1,,,,,9,0,9,0,left,0.4835539794,ES,f,23,59.9965422905,Set,2017_12_15_1826,
"[2.6, 2.6]",2,0,21,21,1,,,,,10,0,10,0,left,0.392088952125,ES,f,23,59.9965422905,Set,2017_12_15_1826,
"[2.6, 2.6]",2,0,21,21,1,,,,,11,0,11,0,left,0.208788237389,ES,f,23,59.9965422905,Set,2017_12_15_1826,
"[2.6, 2.6]",2,0,21,21,1,,,,,12,0,12,0,down,0.375481483177,ES,f,23,59.9965422905,Set,2017_12_15_1826,
"[2.6, 2.6]",2,0,21,21,1,,,,,13,0,13,0,left,0.292133478681,ES,f,23,59.9965422905,Set,2017_12_15_1826,
"[2.6, 2.6]",2,0,21,21,1,,,,,14,0,14,0,left,0.708834027144,ES,f,23,59.9965422905,Set,2017_12_15_1826,
"[2.6, 2.6]",2,0,21,21,1,,,,,15,0,15,0,down,0.658766092558,ES,f,23,59.9965422905,Set,2017_12_15_1826,
"[2.6, 2.6]",2,0,21,21,1,,,,,16,0,16,0,down,0.34209720217,ES,f,23,59.9965422905,Set,2017_12_15_1826,
"[3.0, 3.0]",4,0,22,22,27,,,,,0,0,0,0,left,0.942114254896,ES,f,23,59.9965422905,Set,2017_12_15_1826,
"[3.0, 3.0]",4,0,22,22,27,,,,,1,0,1,0,left,0.458823171823,ES,f,23,59.9965422905,Set,2017_12_15_1826,
"[3.0, 3.0]",4,0,22,22,27,,,,,2,0,2,0,down,0.358810066478,ES,f,23,59.9965422905,Set,2017_12_15_1826,
"[3.0, 3.0]",4,0,22,22,27,,,,,3,0,3,0,down,0.442109518015,ES,f,23,59.9965422905,Set,2017_12_15_1826,
"[3.0, 3.0]",1,0,23,23,24,,,,,0,0,0,0,right,1.52541962752,ES,f,23,59.9965422905,Set,2017_12_15_1826,
"[3.0, 3.0]",1,0,23,23,24,,,,,1,0,1,0,down,0.50879360587,ES,f,23,59.9965422905,Set,2017_12_15_1826,
"[3.0, 3.0]",1,0,23,23,24,,,,,2,0,2,0,left,0.725449390855,ES,f,23,59.9965422905,Set,2017_12_15_1826,
"[3.0, 3.0]",1,0,23,23,24,,,,,3,0,3,0,down,0.375396614225,ES,f,23,59.9965422905,Set,2017_12_15_1826,
"[3.0, 3.0]",1,0,23,23,24,,,,,4,0,4,0,down,0.308787526854,ES,f,23,59.9965422905,Set,2017_12_15_1826,
"[3.0, 3.0]",1,0,23,23,24,,,,,5,0,5,0,left,0.442113860161,ES,f,23,59.9965422905,Set,2017_12_15_1826,
"[3.0, 3.0]",1,0,23,23,24,,,,,6,0,6,0,down,0.52546660151,ES,f,23,59.9965422905,Set,2017_12_15_1826,
"[3.0, 3.0]",1,0,23,23,24,,,,,7,0,7,0,down,0.558790092677,ES,f,23,59.9965422905,Set,2017_12_15_1826,
"[2.7, 2.7]",5,0,24,24,10,,,,,0,0,0,0,left,0.492111531203,ES,f,23,59.9965422905,Set,2017_12_15_1826,
"[2.7, 2.7]",5,0,24,24,10,,,,,1,0,1,0,left,0.475454719883,ES,f,23,59.9965422905,Set,2017_12_15_1826,
"[2.7, 2.7]",5,0,24,24,10,,,,,2,0,2,0,down,0.375463719916,ES,f,23,59.9965422905,Set,2017_12_15_1826,
"[2.7, 2.7]",5,0,24,24,10,,,,,3,0,3,0,down,0.525457917247,ES,f,23,59.9965422905,Set,2017_12_15_1826,
"[2.9, 2.9]",3,0,25,25,20,,,,,0,0,0,0,down,0.442158465681,ES,f,23,59.9965422905,Set,2017_12_15_1826,
"[2.9, 2.9]",3,0,25,25,20,,,,,1,0,1,0,left,0.325457364612,ES,f,23,59.9965422905,Set,2017_12_15_1826,
"[2.9, 2.9]",3,0,25,25,20,,,,,2,0,2,0,down,0.242192255362,ES,f,23,59.9965422905,Set,2017_12_15_1826,
"[2.9, 2.9]",3,0,25,25,20,,,,,3,0,3,0,down,0.375452272478,ES,f,23,59.9965422905,Set,2017_12_15_1826,
"[3.0, 3.0]",2,0,26,26,25,,,,,0,0,0,0,left,1.40878957952,ES,f,23,59.9965422905,Set,2017_12_15_1826,
"[3.0, 3.0]",2,0,26,26,25,,,,,1,0,1,0,down,0.542146307707,ES,f,23,59.9965422905,Set,2017_12_15_1826,
"[3.0, 3.0]",2,0,26,26,25,,,,,2,0,2,0,down,0.292111373303,ES,f,23,59.9965422905,Set,2017_12_15_1826,
"[2.7, 2.7]",1,0,27,27,6,,,,,0,0,0,0,down,0.792124794447,ES,f,23,59.9965422905,Set,2017_12_15_1826,
"[2.7, 2.7]",1,0,27,27,6,,,,,1,0,1,0,down,0.72530057421,ES,f,23,59.9965422905,Set,2017_12_15_1826,
"[2.6, 2.6]",5,0,28,28,4,,,,,0,0,0,0,down,0.566928431421,ES,f,23,59.9965422905,Set,2017_12_15_1826,
"[2.6, 2.6]",5,0,28,28,4,,,,,1,0,1,0,down,0.275458904071,ES,f,23,59.9965422905,Set,2017_12_15_1826,
"[2.7, 2.7]",2,0,29,29,7,,,,,0,0,0,0,down,0.775409166963,ES,f,23,59.9965422905,Set,2017_12_15_1826,
"[2.7, 2.7]",2,0,29,29,7,,,,,1,0,1,0,left,0.808787526883,ES,f,23,59.9965422905,Set,2017_12_15_1826,
"[2.7, 2.7]",2,0,29,29,7,,,,,2,0,2,0,down,0.475495377992,ES,f,23,59.9965422905,Set,2017_12_15_1826,
"[2.7, 2.7]",2,0,29,29,7,,,,,3,0,3,0,left,0.342136676103,ES,f,23,59.9965422905,Set,2017_12_15_1826,
"[2.7, 2.7]",2,0,29,29,7,,,,,4,0,4,0,down,0.675461588311,ES,f,23,59.9965422905,Set,2017_12_15_1826,
"[2.7, 2.7]",2,0,29,29,7,,,,,5,0,5,0,down,0.475466167321,ES,f,23,59.9965422905,Set,2017_12_15_1826,
