size,n,trials_2.thisRepN,trials_2.thisTrialN,trials_2.thisN,trials_2.thisIndex,trials.thisRepN,trials.thisTrialN,trials.thisN,trials.thisIndex,trials_3.thisRepN,trials_3.thisTrialN,trials_3.thisN,trials_3.thisIndex,answer.keys,answer.rt,participant,gender,age,frameRate,expName,date,
"[2.7, 2.7]",3,0,0,0,8,,,,,0,0,0,0,right,3.24209475479,MS,m,25,59.9881601675,Set,2017_12_15_1901,
"[2.7, 2.7]",3,0,0,0,8,,,,,1,0,1,0,right,1.39210039953,MS,m,25,59.9881601675,Set,2017_12_15_1901,
"[2.7, 2.7]",3,0,0,0,8,,,,,2,0,2,0,right,1.45879396112,MS,m,25,59.9881601675,Set,2017_12_15_1901,
"[2.7, 2.7]",3,0,0,0,8,,,,,3,0,3,0,down,1.05878811897,MS,m,25,59.9881601675,Set,2017_12_15_1901,
"[2.7, 2.7]",3,0,0,0,8,,,,,4,0,4,0,down,0.608621578489,MS,m,25,59.9881601675,Set,2017_12_15_1901,
"[2.7, 2.7]",3,0,0,0,8,,,,,5,0,5,0,right,0.708789026889,MS,m,25,59.9881601675,Set,2017_12_15_1901,
"[2.7, 2.7]",3,0,0,0,8,,,,,6,0,6,0,right,0.892107110121,MS,m,25,59.9881601675,Set,2017_12_15_1901,
"[2.7, 2.7]",3,0,0,0,8,,,,,7,0,7,0,right,0.358804540127,MS,m,25,59.9881601675,Set,2017_12_15_1901,
"[2.7, 2.7]",3,0,0,0,8,,,,,8,0,8,0,down,1.30879581638,MS,m,25,59.9881601675,Set,2017_12_15_1901,
"[2.7, 2.7]",3,0,0,0,8,,,,,9,0,9,0,right,0.525449627719,MS,m,25,59.9881601675,Set,2017_12_15_1901,
"[2.7, 2.7]",3,0,0,0,8,,,,,10,0,10,0,right,0.492144689313,MS,m,25,59.9881601675,Set,2017_12_15_1901,
"[2.7, 2.7]",3,0,0,0,8,,,,,11,0,11,0,right,0.342116939137,MS,m,25,59.9881601675,Set,2017_12_15_1901,
"[2.7, 2.7]",3,0,0,0,8,,,,,12,0,12,0,right,0.375366614084,MS,m,25,59.9881601675,Set,2017_12_15_1901,
"[2.7, 2.7]",3,0,0,0,8,,,,,13,0,13,0,down,0.708786658448,MS,m,25,59.9881601675,Set,2017_12_15_1901,
"[2.7, 2.7]",3,0,0,0,8,,,,,14,0,14,0,down,0.108778289956,MS,m,25,59.9881601675,Set,2017_12_15_1901,
"[2.7, 2.7]",5,0,1,1,10,,,,,0,0,0,0,right,0.608798816422,MS,m,25,59.9881601675,Set,2017_12_15_1901,
"[2.7, 2.7]",5,0,1,1,10,,,,,1,0,1,0,down,0.908798658522,MS,m,25,59.9881601675,Set,2017_12_15_1901,
"[2.7, 2.7]",5,0,1,1,10,,,,,2,0,2,0,down,0.642117570707,MS,m,25,59.9881601675,Set,2017_12_15_1901,
"[2.7, 2.7]",5,0,1,1,10,,,,,3,0,3,0,right,0.342156413069,MS,m,25,59.9881601675,Set,2017_12_15_1901,
"[2.7, 2.7]",5,0,1,1,10,,,,,4,0,4,0,right,0.450278646429,MS,m,25,59.9881601675,Set,2017_12_15_1901,
"[2.7, 2.7]",5,0,1,1,10,,,,,5,0,5,0,right,0.25878669793,MS,m,25,59.9881601675,Set,2017_12_15_1901,
"[2.7, 2.7]",5,0,1,1,10,,,,,6,0,6,0,down,0.908793526905,MS,m,25,59.9881601675,Set,2017_12_15_1901,
"[2.7, 2.7]",5,0,1,1,10,,,,,7,0,7,0,right,0.24213817608,MS,m,25,59.9881601675,Set,2017_12_15_1901,
"[2.7, 2.7]",5,0,1,1,10,,,,,8,0,8,0,right,0.525457522512,MS,m,25,59.9881601675,Set,2017_12_15_1901,
"[2.7, 2.7]",5,0,1,1,10,,,,,9,0,9,0,down,0.83356215051,MS,m,25,59.9881601675,Set,2017_12_15_1901,
"[2.7, 2.7]",5,0,1,1,10,,,,,10,0,10,0,right,0.192008267419,MS,m,25,59.9881601675,Set,2017_12_15_1901,
"[2.7, 2.7]",5,0,1,1,10,,,,,11,0,11,0,right,0.392105925916,MS,m,25,59.9881601675,Set,2017_12_15_1901,
"[2.7, 2.7]",5,0,1,1,10,,,,,12,0,12,0,right,0.125444575067,MS,m,25,59.9881601675,Set,2017_12_15_1901,
"[2.7, 2.7]",5,0,1,1,10,,,,,13,0,13,0,right,0.675440272404,MS,m,25,59.9881601675,Set,2017_12_15_1901,
"[2.7, 2.7]",5,0,1,1,10,,,,,14,0,14,0,down,0.49213205764,MS,m,25,59.9881601675,Set,2017_12_15_1901,
"[2.7, 2.7]",5,0,1,1,10,,,,,15,0,15,0,down,0.125472601532,MS,m,25,59.9881601675,Set,2017_12_15_1901,
"[2.9, 2.9]",1,0,2,2,18,,,,,0,0,0,0,right,0.958767118835,MS,m,25,59.9881601675,Set,2017_12_15_1901,
"[2.9, 2.9]",1,0,2,2,18,,,,,1,0,1,0,down,0.858735460788,MS,m,25,59.9881601675,Set,2017_12_15_1901,
"[2.9, 2.9]",1,0,2,2,18,,,,,2,0,2,0,down,0.525455154071,MS,m,25,59.9881601675,Set,2017_12_15_1901,
"[2.9, 2.9]",6,0,3,3,23,,,,,0,0,0,0,right,1.31690494443,MS,m,25,59.9881601675,Set,2017_12_15_1901,
"[2.9, 2.9]",6,0,3,3,23,,,,,1,0,1,0,down,0.725448601384,MS,m,25,59.9881601675,Set,2017_12_15_1901,
"[2.9, 2.9]",6,0,3,3,23,,,,,2,0,2,0,down,0.608814211242,MS,m,25,59.9881601675,Set,2017_12_15_1901,
"[2.9, 2.9]",3,0,4,4,20,,,,,0,0,0,0,left,5.85875085558,MS,m,25,59.9881601675,Set,2017_12_15_1901,
"[2.9, 2.9]",3,0,4,4,20,,,,,1,0,1,0,down,1.09211082067,MS,m,25,59.9881601675,Set,2017_12_15_1901,
"[2.9, 2.9]",3,0,4,4,20,,,,,2,0,2,0,down,0.675453298783,MS,m,25,59.9881601675,Set,2017_12_15_1901,
"[2.7, 2.7]",2,0,5,5,7,,,,,0,0,0,0,down,0.733569571603,MS,m,25,59.9881601675,Set,2017_12_15_1901,
"[2.7, 2.7]",2,0,5,5,7,,,,,1,0,1,0,left,1.34205930721,MS,m,25,59.9881601675,Set,2017_12_15_1901,
"[2.7, 2.7]",2,0,5,5,7,,,,,2,0,2,0,left,1.32549170693,MS,m,25,59.9881601675,Set,2017_12_15_1901,
"[2.7, 2.7]",2,0,5,5,7,,,,,3,0,3,0,left,0.458805803297,MS,m,25,59.9881601675,Set,2017_12_15_1901,
"[2.7, 2.7]",2,0,5,5,7,,,,,4,0,4,0,left,0.508803474338,MS,m,25,59.9881601675,Set,2017_12_15_1901,
"[2.7, 2.7]",2,0,5,5,7,,,,,5,0,5,0,left,0.725455706706,MS,m,25,59.9881601675,Set,2017_12_15_1901,
"[2.7, 2.7]",2,0,5,5,7,,,,,6,0,6,0,down,0.408814053342,MS,m,25,59.9881601675,Set,2017_12_15_1901,
"[2.7, 2.7]",2,0,5,5,7,,,,,7,0,7,0,left,0.575500193838,MS,m,25,59.9881601675,Set,2017_12_15_1901,
"[2.7, 2.7]",2,0,5,5,7,,,,,8,0,8,0,down,0.558818513906,MS,m,25,59.9881601675,Set,2017_12_15_1901,
"[2.7, 2.7]",2,0,5,5,7,,,,,9,0,9,0,down,0.341961411876,MS,m,25,59.9881601675,Set,2017_12_15_1901,
"[3.0, 3.0]",6,0,6,6,29,,,,,0,0,0,0,left,0.558650354971,MS,m,25,59.9881601675,Set,2017_12_15_1901,
"[3.0, 3.0]",6,0,6,6,29,,,,,1,0,1,0,left,0.575456377759,MS,m,25,59.9881601675,Set,2017_12_15_1901,
"[3.0, 3.0]",6,0,6,6,29,,,,,2,0,2,0,left,0.375470035739,MS,m,25,59.9881601675,Set,2017_12_15_1901,
"[3.0, 3.0]",6,0,6,6,29,,,,,3,0,3,0,left,0.44211070225,MS,m,25,59.9881601675,Set,2017_12_15_1901,
"[3.0, 3.0]",6,0,6,6,29,,,,,4,0,4,0,left,0.492141926137,MS,m,25,59.9881601675,Set,2017_12_15_1901,
"[3.0, 3.0]",6,0,6,6,29,,,,,5,0,5,0,left,0.483570558456,MS,m,25,59.9881601675,Set,2017_12_15_1901,
"[3.0, 3.0]",6,0,6,6,29,,,,,6,0,6,0,left,0.258800119045,MS,m,25,59.9881601675,Set,2017_12_15_1901,
"[3.0, 3.0]",6,0,6,6,29,,,,,7,0,7,0,left,1.02541725911,MS,m,25,59.9881601675,Set,2017_12_15_1901,
"[3.0, 3.0]",6,0,6,6,29,,,,,8,0,8,0,left,0.383573242667,MS,m,25,59.9881601675,Set,2017_12_15_1901,
"[3.0, 3.0]",6,0,6,6,29,,,,,9,0,9,0,down,0.650246830424,MS,m,25,59.9881601675,Set,2017_12_15_1901,
"[3.0, 3.0]",6,0,6,6,29,,,,,10,0,10,0,down,0.466922036634,MS,m,25,59.9881601675,Set,2017_12_15_1901,
"[3.0, 3.0]",6,0,6,6,29,,,,,11,0,11,0,left,0.650318278233,MS,m,25,59.9881601675,Set,2017_12_15_1901,
"[3.0, 3.0]",6,0,6,6,29,,,,,12,0,12,0,left,0.625483654236,MS,m,25,59.9881601675,Set,2017_12_15_1901,
"[3.0, 3.0]",6,0,6,6,29,,,,,13,0,13,0,left,0.608790526894,MS,m,25,59.9881601675,Set,2017_12_15_1901,
"[3.0, 3.0]",6,0,6,6,29,,,,,14,0,14,0,left,0.675458035694,MS,m,25,59.9881601675,Set,2017_12_15_1901,
"[3.0, 3.0]",6,0,6,6,29,,,,,15,0,15,0,left,0.325463285699,MS,m,25,59.9881601675,Set,2017_12_15_1901,
"[3.0, 3.0]",6,0,6,6,29,,,,,16,0,16,0,left,0.525455548806,MS,m,25,59.9881601675,Set,2017_12_15_1901,
"[3.0, 3.0]",6,0,6,6,29,,,,,17,0,17,0,left,0.542116702272,MS,m,25,59.9881601675,Set,2017_12_15_1901,
"[3.0, 3.0]",6,0,6,6,29,,,,,18,0,18,0,left,0.542193281697,MS,m,25,59.9881601675,Set,2017_12_15_1901,
"[3.0, 3.0]",6,0,6,6,29,,,,,19,0,19,0,down,0.408803790109,MS,m,25,59.9881601675,Set,2017_12_15_1901,
"[3.0, 3.0]",6,0,6,6,29,,,,,20,0,20,0,down,0.408805763844,MS,m,25,59.9881601675,Set,2017_12_15_1901,
"[3.0, 3.0]",6,0,6,6,29,,,,,21,0,21,0,left,1.45879475059,MS,m,25,59.9881601675,Set,2017_12_15_1901,
"[3.0, 3.0]",6,0,6,6,29,,,,,22,0,22,0,down,0.92545310143,MS,m,25,59.9881601675,Set,2017_12_15_1901,
"[3.0, 3.0]",6,0,6,6,29,,,,,23,0,23,0,down,0.442130439187,MS,m,25,59.9881601675,Set,2017_12_15_1901,
"[2.6, 2.6]",2,0,7,7,1,,,,,0,0,0,0,down,0.892120926001,MS,m,25,59.9881601675,Set,2017_12_15_1901,
"[2.6, 2.6]",2,0,7,7,1,,,,,1,0,1,0,down,0.742129491846,MS,m,25,59.9881601675,Set,2017_12_15_1901,
"[2.7, 2.7]",1,0,8,8,6,,,,,0,0,0,0,left,0.783573163731,MS,m,25,59.9881601675,Set,2017_12_15_1901,
"[2.7, 2.7]",1,0,8,8,6,,,,,1,0,1,0,down,1.3587879611,MS,m,25,59.9881601675,Set,2017_12_15_1901,
"[2.7, 2.7]",1,0,8,8,6,,,,,2,0,2,0,down,0.850253698911,MS,m,25,59.9881601675,Set,2017_12_15_1901,
"[3.0, 3.0]",1,0,9,9,24,,,,,0,0,0,0,left,0.916914497095,MS,m,25,59.9881601675,Set,2017_12_15_1901,
"[3.0, 3.0]",1,0,9,9,24,,,,,1,0,1,0,down,1.12546352253,MS,m,25,59.9881601675,Set,2017_12_15_1901,
"[3.0, 3.0]",1,0,9,9,24,,,,,2,0,2,0,down,0.575448877702,MS,m,25,59.9881601675,Set,2017_12_15_1901,
"[3.0, 3.0]",4,0,10,10,27,,,,,0,0,0,0,left,1.57545637779,MS,m,25,59.9881601675,Set,2017_12_15_1901,
"[3.0, 3.0]",4,0,10,10,27,,,,,1,0,1,0,down,0.90879313217,MS,m,25,59.9881601675,Set,2017_12_15_1901,
"[3.0, 3.0]",4,0,10,10,27,,,,,2,0,2,0,down,0.558811408613,MS,m,25,59.9881601675,Set,2017_12_15_1901,
"[2.6, 2.6]",6,0,11,11,5,,,,,0,0,0,0,left,0.675450930372,MS,m,25,59.9881601675,Set,2017_12_15_1901,
"[2.6, 2.6]",6,0,11,11,5,,,,,1,0,1,0,down,0.542135649768,MS,m,25,59.9881601675,Set,2017_12_15_1901,
"[2.6, 2.6]",6,0,11,11,5,,,,,2,0,2,0,down,0.408870501065,MS,m,25,59.9881601675,Set,2017_12_15_1901,
"[2.8, 2.8]",1,0,12,12,12,,,,,0,0,0,0,left,0.725442285562,MS,m,25,59.9881601675,Set,2017_12_15_1901,
"[2.8, 2.8]",1,0,12,12,12,,,,,1,0,1,0,left,1.22546320673,MS,m,25,59.9881601675,Set,2017_12_15_1901,
"[2.8, 2.8]",1,0,12,12,12,,,,,2,0,2,0,down,0.508785316342,MS,m,25,59.9881601675,Set,2017_12_15_1901,
"[2.8, 2.8]",1,0,12,12,12,,,,,3,0,3,0,down,0.192131426069,MS,m,25,59.9881601675,Set,2017_12_15_1901,
"[2.7, 2.7]",6,0,13,13,11,,,,,0,0,0,0,down,0.641948227596,MS,m,25,59.9881601675,Set,2017_12_15_1901,
"[2.7, 2.7]",6,0,13,13,11,,,,,1,0,1,0,left,0.76690845759,MS,m,25,59.9881601675,Set,2017_12_15_1901,
"[2.7, 2.7]",6,0,13,13,11,,,,,2,0,2,0,down,0.825449469849,MS,m,25,59.9881601675,Set,2017_12_15_1901,
"[2.7, 2.7]",6,0,13,13,11,,,,,3,0,3,0,down,0.242119623348,MS,m,25,59.9881601675,Set,2017_12_15_1901,
"[2.9, 2.9]",5,0,14,14,22,,,,,0,0,0,0,down,0.458799092739,MS,m,25,59.9881601675,Set,2017_12_15_1901,
"[2.9, 2.9]",5,0,14,14,22,,,,,1,0,1,0,down,0.492119425995,MS,m,25,59.9881601675,Set,2017_12_15_1901,
"[2.8, 2.8]",6,0,15,15,17,,,,,0,0,0,0,down,0.675475009455,MS,m,25,59.9881601675,Set,2017_12_15_1901,
"[2.8, 2.8]",6,0,15,15,17,,,,,1,0,1,0,down,0.358799803245,MS,m,25,59.9881601675,Set,2017_12_15_1901,
"[3.0, 3.0]",3,0,16,16,26,,,,,0,0,0,0,down,0.425455469842,MS,m,25,59.9881601675,Set,2017_12_15_1901,
"[3.0, 3.0]",3,0,16,16,26,,,,,1,0,1,0,down,0.408795105875,MS,m,25,59.9881601675,Set,2017_12_15_1901,
"[2.6, 2.6]",1,0,17,17,0,,,,,0,0,0,0,down,0.392095267947,MS,m,25,59.9881601675,Set,2017_12_15_1901,
"[2.6, 2.6]",1,0,17,17,0,,,,,1,0,1,0,down,0.575458746171,MS,m,25,59.9881601675,Set,2017_12_15_1901,
"[2.8, 2.8]",5,0,18,18,16,,,,,0,0,0,0,down,0.408825106046,MS,m,25,59.9881601675,Set,2017_12_15_1901,
"[2.8, 2.8]",5,0,18,18,16,,,,,1,0,1,0,down,0.142127833911,MS,m,25,59.9881601675,Set,2017_12_15_1901,
"[2.8, 2.8]",4,0,19,19,15,,,,,0,0,0,0,left,1.08355208466,MS,m,25,59.9881601675,Set,2017_12_15_1901,
"[2.8, 2.8]",4,0,19,19,15,,,,,1,0,1,0,left,0.741963306617,MS,m,25,59.9881601675,Set,2017_12_15_1901,
"[2.8, 2.8]",4,0,19,19,15,,,,,2,0,2,0,down,0.325459733052,MS,m,25,59.9881601675,Set,2017_12_15_1901,
"[2.8, 2.8]",4,0,19,19,15,,,,,3,0,3,0,down,0.108803553303,MS,m,25,59.9881601675,Set,2017_12_15_1901,
"[3.0, 3.0]",2,0,20,20,25,,,,,0,0,0,0,left,0.492121794436,MS,m,25,59.9881601675,Set,2017_12_15_1901,
"[3.0, 3.0]",2,0,20,20,25,,,,,1,0,1,0,down,0.992072452034,MS,m,25,59.9881601675,Set,2017_12_15_1901,
"[3.0, 3.0]",2,0,20,20,25,,,,,2,0,2,0,down,0.466940589366,MS,m,25,59.9881601675,Set,2017_12_15_1901,
"[2.8, 2.8]",2,0,21,21,13,,,,,0,0,0,0,down,0.592109636462,MS,m,25,59.9881601675,Set,2017_12_15_1901,
"[2.8, 2.8]",2,0,21,21,13,,,,,1,0,1,0,left,0.592114373343,MS,m,25,59.9881601675,Set,2017_12_15_1901,
"[2.8, 2.8]",2,0,21,21,13,,,,,2,0,2,0,down,0.975470114703,MS,m,25,59.9881601675,Set,2017_12_15_1901,
"[2.8, 2.8]",2,0,21,21,13,,,,,3,0,3,0,down,0.475447614561,MS,m,25,59.9881601675,Set,2017_12_15_1901,
"[2.6, 2.6]",4,0,22,22,3,,,,,0,0,0,0,down,0.350243435707,MS,m,25,59.9881601675,Set,2017_12_15_1901,
"[2.6, 2.6]",4,0,22,22,3,,,,,1,0,1,0,down,0.391961451329,MS,m,25,59.9881601675,Set,2017_12_15_1901,
"[2.6, 2.6]",3,0,23,23,2,,,,,0,0,0,0,down,0.416920812946,MS,m,25,59.9881601675,Set,2017_12_15_1901,
"[2.6, 2.6]",3,0,23,23,2,,,,,1,0,1,0,down,0.558784566325,MS,m,25,59.9881601675,Set,2017_12_15_1901,
"[2.8, 2.8]",3,0,24,24,14,,,,,0,0,0,0,left,0.483581216424,MS,m,25,59.9881601675,Set,2017_12_15_1901,
"[2.8, 2.8]",3,0,24,24,14,,,,,1,0,1,0,down,0.35883098765,MS,m,25,59.9881601675,Set,2017_12_15_1901,
"[2.8, 2.8]",3,0,24,24,14,,,,,2,0,2,0,down,0.0588015401154,MS,m,25,59.9881601675,Set,2017_12_15_1901,
"[3.0, 3.0]",5,0,25,25,28,,,,,0,0,0,0,down,0.258774460992,MS,m,25,59.9881601675,Set,2017_12_15_1901,
"[3.0, 3.0]",5,0,25,25,28,,,,,1,0,1,0,down,0.0754615093756,MS,m,25,59.9881601675,Set,2017_12_15_1901,
"[2.6, 2.6]",5,0,26,26,4,,,,,0,0,0,0,down,0.375430561806,MS,m,25,59.9881601675,Set,2017_12_15_1901,
"[2.6, 2.6]",5,0,26,26,4,,,,,1,0,1,0,down,0.425456259341,MS,m,25,59.9881601675,Set,2017_12_15_1901,
"[2.9, 2.9]",4,0,27,27,21,,,,,0,0,0,0,down,0.40882313234,MS,m,25,59.9881601675,Set,2017_12_15_1901,
"[2.9, 2.9]",4,0,27,27,21,,,,,1,0,1,0,down,0.425455075136,MS,m,25,59.9881601675,Set,2017_12_15_1901,
"[2.9, 2.9]",2,0,28,28,19,,,,,0,0,0,0,down,0.616898075968,MS,m,25,59.9881601675,Set,2017_12_15_1901,
"[2.9, 2.9]",2,0,28,28,19,,,,,1,0,1,0,down,0.37545937777,MS,m,25,59.9881601675,Set,2017_12_15_1901,
"[2.7, 2.7]",4,0,29,29,9,,,,,0,0,0,0,down,0.358777303132,MS,m,25,59.9881601675,Set,2017_12_15_1901,
"[2.7, 2.7]",4,0,29,29,9,,,,,1,0,1,0,down,0.358943093597,MS,m,25,59.9881601675,Set,2017_12_15_1901,
