size,n,trials_2.thisRepN,trials_2.thisTrialN,trials_2.thisN,trials_2.thisIndex,trials.thisRepN,trials.thisTrialN,trials.thisN,trials.thisIndex,trials_3.thisRepN,trials_3.thisTrialN,trials_3.thisN,trials_3.thisIndex,answer.keys,answer.rt,participant,gender,age,frameRate,expName,date,
"[2.8, 2.8]",4,0,0,0,15,,,,,0,0,0,0,right,5.66681640444,OR,f,21,60.0107546239,Set,2017_12_20_1953,
"[2.8, 2.8]",4,0,0,0,15,,,,,1,0,1,0,right,2.50877663214,OR,f,21,60.0107546239,Set,2017_12_20_1953,
"[2.8, 2.8]",4,0,0,0,15,,,,,2,0,2,0,right,1.85874414514,OR,f,21,60.0107546239,Set,2017_12_20_1953,
"[2.8, 2.8]",4,0,0,0,15,,,,,3,0,3,0,right,0.475465772557,OR,f,21,60.0107546239,Set,2017_12_20_1953,
"[2.8, 2.8]",4,0,0,0,15,,,,,4,0,4,0,right,0.475419982802,OR,f,21,60.0107546239,Set,2017_12_20_1953,
"[2.8, 2.8]",4,0,0,0,15,,,,,5,0,5,0,right,0.325453022495,OR,f,21,60.0107546239,Set,2017_12_20_1953,
"[2.8, 2.8]",4,0,0,0,15,,,,,6,0,6,0,right,0.333521887078,OR,f,21,60.0107546239,Set,2017_12_20_1953,
"[2.8, 2.8]",4,0,0,0,15,,,,,7,0,7,0,right,0.400230843574,OR,f,21,60.0107546239,Set,2017_12_20_1953,
"[2.8, 2.8]",4,0,0,0,15,,,,,8,0,8,0,right,0.375446351361,OR,f,21,60.0107546239,Set,2017_12_20_1953,
"[2.8, 2.8]",4,0,0,0,15,,,,,9,0,9,0,left,0.325442759204,OR,f,21,60.0107546239,Set,2017_12_20_1953,
"[2.8, 2.8]",4,0,0,0,15,,,,,10,0,10,0,left,0.525481206831,OR,f,21,60.0107546239,Set,2017_12_20_1953,
"[2.8, 2.8]",4,0,0,0,15,,,,,11,0,11,0,down,0.642129018204,OR,f,21,60.0107546239,Set,2017_12_20_1953,
"[2.8, 2.8]",4,0,0,0,15,,,,,12,0,12,0,left,0.458763566101,OR,f,21,60.0107546239,Set,2017_12_20_1953,
"[2.8, 2.8]",4,0,0,0,15,,,,,13,0,13,0,left,0.541967096156,OR,f,21,60.0107546239,Set,2017_12_20_1953,
"[2.8, 2.8]",4,0,0,0,15,,,,,14,0,14,0,right,0.608790921629,OR,f,21,60.0107546239,Set,2017_12_20_1953,
"[2.8, 2.8]",4,0,0,0,15,,,,,15,0,15,0,left,0.308792263735,OR,f,21,60.0107546239,Set,2017_12_20_1953,
"[2.8, 2.8]",4,0,0,0,15,,,,,16,0,16,0,right,0.608788158512,OR,f,21,60.0107546239,Set,2017_12_20_1953,
"[2.8, 2.8]",4,0,0,0,15,,,,,17,0,17,0,left,0.292137426091,OR,f,21,60.0107546239,Set,2017_12_20_1953,
"[2.8, 2.8]",4,0,0,0,15,,,,,18,0,18,0,left,0.258807224338,OR,f,21,60.0107546239,Set,2017_12_20_1953,
"[2.8, 2.8]",4,0,0,0,15,,,,,19,0,19,0,left,0.192135768128,OR,f,21,60.0107546239,Set,2017_12_20_1953,
"[2.8, 2.8]",4,0,0,0,15,,,,,20,0,20,0,left,0.192142084008,OR,f,21,60.0107546239,Set,2017_12_20_1953,
"[2.8, 2.8]",4,0,0,0,15,,,,,21,0,21,0,left,0.142127439147,OR,f,21,60.0107546239,Set,2017_12_20_1953,
"[2.8, 2.8]",4,0,0,0,15,,,,,22,0,22,0,left,0.158797276905,OR,f,21,60.0107546239,Set,2017_12_20_1953,
"[2.8, 2.8]",4,0,0,0,15,,,,,23,0,23,0,left,0.542120254948,OR,f,21,60.0107546239,Set,2017_12_20_1953,
"[2.8, 2.8]",4,0,0,0,15,,,,,24,0,24,0,left,0.392103162711,OR,f,21,60.0107546239,Set,2017_12_20_1953,
"[2.8, 2.8]",4,0,0,0,15,,,,,25,0,25,0,left,0.2087913953,OR,f,21,60.0107546239,Set,2017_12_20_1953,
"[2.8, 2.8]",4,0,0,0,15,,,,,26,0,26,0,left,0.208896790748,OR,f,21,60.0107546239,Set,2017_12_20_1953,
"[2.8, 2.8]",4,0,0,0,15,,,,,27,0,27,0,left,0.358799408539,OR,f,21,60.0107546239,Set,2017_12_20_1953,
"[2.8, 2.8]",4,0,0,0,15,,,,,28,0,28,0,down,0.54211749183,OR,f,21,60.0107546239,Set,2017_12_20_1953,
"[2.8, 2.8]",4,0,0,0,15,,,,,29,0,29,0,left,0.592144768219,OR,f,21,60.0107546239,Set,2017_12_20_1953,
"[2.8, 2.8]",4,0,0,0,15,,,,,30,0,30,0,down,0.775457325042,OR,f,21,60.0107546239,Set,2017_12_20_1953,
"[2.8, 2.8]",4,0,0,0,15,,,,,31,0,31,0,left,0.342130754958,OR,f,21,60.0107546239,Set,2017_12_20_1953,
"[2.8, 2.8]",4,0,0,0,15,,,,,32,0,32,0,left,0.308899238124,OR,f,21,60.0107546239,Set,2017_12_20_1953,
"[2.8, 2.8]",4,0,0,0,15,,,,,33,0,33,0,down,0.37542858813,OR,f,21,60.0107546239,Set,2017_12_20_1953,
"[2.8, 2.8]",4,0,0,0,15,,,,,34,0,34,0,left,0.358763092547,OR,f,21,60.0107546239,Set,2017_12_20_1953,
"[2.8, 2.8]",4,0,0,0,15,,,,,35,0,35,0,left,0.425473233103,OR,f,21,60.0107546239,Set,2017_12_20_1953,
"[2.8, 2.8]",4,0,0,0,15,,,,,36,0,36,0,left,0.34211575496,OR,f,21,60.0107546239,Set,2017_12_20_1953,
"[2.8, 2.8]",4,0,0,0,15,,,,,37,0,37,0,left,1.04212025495,OR,f,21,60.0107546239,Set,2017_12_20_1953,
"[2.8, 2.8]",4,0,0,0,15,,,,,38,0,38,0,left,0.192107346957,OR,f,21,60.0107546239,Set,2017_12_20_1953,
"[2.8, 2.8]",4,0,0,0,15,,,,,39,0,39,0,left,0.592120689107,OR,f,21,60.0107546239,Set,2017_12_20_1953,
"[2.8, 2.8]",4,0,0,0,15,,,,,40,0,40,0,left,0.408781684819,OR,f,21,60.0107546239,Set,2017_12_20_1953,
"[2.8, 2.8]",4,0,0,0,15,,,,,41,0,41,0,left,0.392088952125,OR,f,21,60.0107546239,Set,2017_12_20_1953,
"[2.8, 2.8]",4,0,0,0,15,,,,,42,0,42,0,down,0.575452825171,OR,f,21,60.0107546239,Set,2017_12_20_1953,
"[2.8, 2.8]",4,0,0,0,15,,,,,43,0,43,0,left,0.22545215406,OR,f,21,60.0107546239,Set,2017_12_20_1953,
"[2.8, 2.8]",4,0,0,0,15,,,,,44,0,44,0,down,0.392071583541,OR,f,21,60.0107546239,Set,2017_12_20_1953,
"[2.8, 2.8]",4,0,0,0,15,,,,,45,0,45,0,left,0.29212953127,OR,f,21,60.0107546239,Set,2017_12_20_1953,
"[2.8, 2.8]",4,0,0,0,15,,,,,46,0,46,0,left,0.308794632205,OR,f,21,60.0107546239,Set,2017_12_20_1953,
"[2.8, 2.8]",4,0,0,0,15,,,,,47,0,47,0,right,0.708763763541,OR,f,21,60.0107546239,Set,2017_12_20_1953,
"[2.8, 2.8]",4,0,0,0,15,,,,,48,0,48,0,down,0.658777539968,OR,f,21,60.0107546239,Set,2017_12_20_1953,
"[2.8, 2.8]",4,0,0,0,15,,,,,49,0,49,0,down,0.508801500546,OR,f,21,60.0107546239,Set,2017_12_20_1953,
"[2.8, 2.8]",4,0,0,0,15,,,,,50,0,50,0,left,0.525448443484,OR,f,21,60.0107546239,Set,2017_12_20_1953,
"[2.8, 2.8]",4,0,0,0,15,,,,,51,0,51,0,left,0.408679447253,OR,f,21,60.0107546239,Set,2017_12_20_1953,
"[2.8, 2.8]",4,0,0,0,15,,,,,52,0,52,0,right,0.450219040853,OR,f,21,60.0107546239,Set,2017_12_20_1953,
"[2.8, 2.8]",4,0,0,0,15,,,,,53,0,53,0,right,0.33358149277,OR,f,21,60.0107546239,Set,2017_12_20_1953,
"[2.8, 2.8]",4,0,0,0,15,,,,,54,0,54,0,right,0.200233843527,OR,f,21,60.0107546239,Set,2017_12_20_1953,
"[2.8, 2.8]",4,0,0,0,15,,,,,55,0,55,0,right,0.35028133064,OR,f,21,60.0107546239,Set,2017_12_20_1953,
"[2.8, 2.8]",4,0,0,0,15,,,,,56,0,56,0,right,0.216913549812,OR,f,21,60.0107546239,Set,2017_12_20_1953,
"[2.8, 2.8]",4,0,0,0,15,,,,,57,0,57,0,right,0.175445009256,OR,f,21,60.0107546239,Set,2017_12_20_1953,
"[2.8, 2.8]",4,0,0,0,15,,,,,58,0,58,0,right,0.175450535608,OR,f,21,60.0107546239,Set,2017_12_20_1953,
"[2.8, 2.8]",4,0,0,0,15,,,,,59,0,59,0,down,0.425443232874,OR,f,21,60.0107546239,Set,2017_12_20_1953,
"[2.8, 2.8]",4,0,0,0,15,,,,,60,0,60,0,down,0.342116149608,OR,f,21,60.0107546239,Set,2017_12_20_1953,
"[3.0, 3.0]",3,0,1,1,26,,,,,0,0,0,0,down,0.492118636495,OR,f,21,60.0107546239,Set,2017_12_20_1953,
"[3.0, 3.0]",3,0,1,1,26,,,,,1,0,1,0,right,0.342114570667,OR,f,21,60.0107546239,Set,2017_12_20_1953,
"[3.0, 3.0]",3,0,1,1,26,,,,,2,0,2,0,down,0.558774303063,OR,f,21,60.0107546239,Set,2017_12_20_1953,
"[3.0, 3.0]",3,0,1,1,26,,,,,3,0,3,0,right,0.29212953127,OR,f,21,60.0107546239,Set,2017_12_20_1953,
"[3.0, 3.0]",3,0,1,1,26,,,,,4,0,4,0,right,0.242112123291,OR,f,21,60.0107546239,Set,2017_12_20_1953,
"[3.0, 3.0]",3,0,1,1,26,,,,,5,0,5,0,right,0.242129491875,OR,f,21,60.0107546239,Set,2017_12_20_1953,
"[3.0, 3.0]",3,0,1,1,26,,,,,6,0,6,0,down,0.308804500732,OR,f,21,60.0107546239,Set,2017_12_20_1953,
"[3.0, 3.0]",3,0,1,1,26,,,,,7,0,7,0,right,0.625450890861,OR,f,21,60.0107546239,Set,2017_12_20_1953,
"[3.0, 3.0]",3,0,1,1,26,,,,,8,0,8,0,right,1.09208476788,OR,f,21,60.0107546239,Set,2017_12_20_1953,
"[3.0, 3.0]",3,0,1,1,26,,,,,9,0,9,0,right,0.292132689268,OR,f,21,60.0107546239,Set,2017_12_20_1953,
"[3.0, 3.0]",3,0,1,1,26,,,,,10,0,10,0,right,0.125467075151,OR,f,21,60.0107546239,Set,2017_12_20_1953,
"[3.0, 3.0]",3,0,1,1,26,,,,,11,0,11,0,right,0.242129491875,OR,f,21,60.0107546239,Set,2017_12_20_1953,
"[3.0, 3.0]",3,0,1,1,26,,,,,12,0,12,0,right,0.192116425955,OR,f,21,60.0107546239,Set,2017_12_20_1953,
"[3.0, 3.0]",3,0,1,1,26,,,,,13,0,13,0,right,0.225471101585,OR,f,21,60.0107546239,Set,2017_12_20_1953,
"[3.0, 3.0]",3,0,1,1,26,,,,,14,0,14,0,right,0.175480141072,OR,f,21,60.0107546239,Set,2017_12_20_1953,
"[3.0, 3.0]",3,0,1,1,26,,,,,15,0,15,0,right,0.225439127651,OR,f,21,60.0107546239,Set,2017_12_20_1953,
"[3.0, 3.0]",3,0,1,1,26,,,,,16,0,16,0,right,0.59214871563,OR,f,21,60.0107546239,Set,2017_12_20_1953,
"[3.0, 3.0]",3,0,1,1,26,,,,,17,0,17,0,right,0.225442680414,OR,f,21,60.0107546239,Set,2017_12_20_1953,
"[3.0, 3.0]",3,0,1,1,26,,,,,18,0,18,0,right,0.208797316416,OR,f,21,60.0107546239,Set,2017_12_20_1953,
"[3.0, 3.0]",3,0,1,1,26,,,,,19,0,19,0,right,0.408785632113,OR,f,21,60.0107546239,Set,2017_12_20_1953,
"[3.0, 3.0]",3,0,1,1,26,,,,,20,0,20,0,right,0.375462535652,OR,f,21,60.0107546239,Set,2017_12_20_1953,
"[3.0, 3.0]",3,0,1,1,26,,,,,21,0,21,0,down,0.542121439124,OR,f,21,60.0107546239,Set,2017_12_20_1953,
"[3.0, 3.0]",3,0,1,1,26,,,,,22,0,22,0,down,0.508788868901,OR,f,21,60.0107546239,Set,2017_12_20_1953,
"[2.8, 2.8]",2,0,2,2,13,,,,,0,0,0,0,down,0.775444693514,OR,f,21,60.0107546239,Set,2017_12_20_1953,
"[2.8, 2.8]",2,0,2,2,13,,,,,1,0,1,0,right,0.325475127902,OR,f,21,60.0107546239,Set,2017_12_20_1953,
"[2.8, 2.8]",2,0,2,2,13,,,,,2,0,2,0,right,0.325492891134,OR,f,21,60.0107546239,Set,2017_12_20_1953,
"[2.8, 2.8]",2,0,2,2,13,,,,,3,0,3,0,right,0.208801658591,OR,f,21,60.0107546239,Set,2017_12_20_1953,
"[2.8, 2.8]",2,0,2,2,13,,,,,4,0,4,0,right,0.442152149859,OR,f,21,60.0107546239,Set,2017_12_20_1953,
"[2.8, 2.8]",2,0,2,2,13,,,,,5,0,5,0,right,0.208782711066,OR,f,21,60.0107546239,Set,2017_12_20_1953,
"[2.8, 2.8]",2,0,2,2,13,,,,,6,0,6,0,right,0.375468456768,OR,f,21,60.0107546239,Set,2017_12_20_1953,
"[2.8, 2.8]",2,0,2,2,13,,,,,7,0,7,0,right,0.308648183942,OR,f,21,60.0107546239,Set,2017_12_20_1953,
"[2.8, 2.8]",2,0,2,2,13,,,,,8,0,8,0,right,0.658751092502,OR,f,21,60.0107546239,Set,2017_12_20_1953,
"[2.8, 2.8]",2,0,2,2,13,,,,,9,0,9,0,right,0.408756816178,OR,f,21,60.0107546239,Set,2017_12_20_1953,
"[2.8, 2.8]",2,0,2,2,13,,,,,10,0,10,0,down,0.575474141049,OR,f,21,60.0107546239,Set,2017_12_20_1953,
"[2.8, 2.8]",2,0,2,2,13,,,,,11,0,11,0,right,0.442147018155,OR,f,21,60.0107546239,Set,2017_12_20_1953,
"[2.8, 2.8]",2,0,2,2,13,,,,,12,0,12,0,right,0.392148952466,OR,f,21,60.0107546239,Set,2017_12_20_1953,
"[2.8, 2.8]",2,0,2,2,13,,,,,13,0,13,0,right,0.225428074948,OR,f,21,60.0107546239,Set,2017_12_20_1953,
"[2.8, 2.8]",2,0,2,2,13,,,,,14,0,14,0,down,0.458781329449,OR,f,21,60.0107546239,Set,2017_12_20_1953,
"[2.8, 2.8]",2,0,2,2,13,,,,,15,0,15,0,right,0.358765855664,OR,f,21,60.0107546239,Set,2017_12_20_1953,
"[2.8, 2.8]",2,0,2,2,13,,,,,16,0,16,0,right,0.308819895494,OR,f,21,60.0107546239,Set,2017_12_20_1953,
"[2.8, 2.8]",2,0,2,2,13,,,,,17,0,17,0,right,0.658794119023,OR,f,21,60.0107546239,Set,2017_12_20_1953,
"[2.8, 2.8]",2,0,2,2,13,,,,,18,0,18,0,right,0.442127676099,OR,f,21,60.0107546239,Set,2017_12_20_1953,
"[2.8, 2.8]",2,0,2,2,13,,,,,19,0,19,0,down,0.308818711201,OR,f,21,60.0107546239,Set,2017_12_20_1953,
"[2.8, 2.8]",2,0,2,2,13,,,,,20,0,20,0,down,0.508809395484,OR,f,21,60.0107546239,Set,2017_12_20_1953,
"[2.9, 2.9]",6,0,3,3,23,,,,,0,0,0,0,left,0.725442285649,OR,f,21,60.0107546239,Set,2017_12_20_1953,
"[2.9, 2.9]",6,0,3,3,23,,,,,1,0,1,0,right,0.458733565989,OR,f,21,60.0107546239,Set,2017_12_20_1953,
"[2.9, 2.9]",6,0,3,3,23,,,,,2,0,2,0,down,0.47545590403,OR,f,21,60.0107546239,Set,2017_12_20_1953,
"[2.9, 2.9]",6,0,3,3,23,,,,,3,0,3,0,down,0.442120570806,OR,f,21,60.0107546239,Set,2017_12_20_1953,
"[2.6, 2.6]",6,0,4,4,5,,,,,0,0,0,0,down,0.658808329608,OR,f,21,60.0107546239,Set,2017_12_20_1953,
"[2.6, 2.6]",6,0,4,4,5,,,,,1,0,1,0,down,0.375460167299,OR,f,21,60.0107546239,Set,2017_12_20_1953,
"[2.8, 2.8]",1,0,5,5,12,,,,,0,0,0,0,down,0.992111136555,OR,f,21,60.0107546239,Set,2017_12_20_1953,
"[2.8, 2.8]",1,0,5,5,12,,,,,1,0,1,0,down,0.292125978624,OR,f,21,60.0107546239,Set,2017_12_20_1953,
"[2.9, 2.9]",1,0,6,6,18,,,,,0,0,0,0,left,0.816852444084,OR,f,21,60.0107546239,Set,2017_12_20_1953,
"[2.9, 2.9]",1,0,6,6,18,,,,,1,0,1,0,down,0.475450377795,OR,f,21,60.0107546239,Set,2017_12_20_1953,
"[2.9, 2.9]",1,0,6,6,18,,,,,2,0,2,0,down,0.442144255037,OR,f,21,60.0107546239,Set,2017_12_20_1953,
"[2.7, 2.7]",3,0,7,7,8,,,,,0,0,0,0,right,1.33357044007,OR,f,21,60.0107546239,Set,2017_12_20_1953,
"[2.7, 2.7]",3,0,7,7,8,,,,,1,0,1,0,left,0.492141926195,OR,f,21,60.0107546239,Set,2017_12_20_1953,
"[2.7, 2.7]",3,0,7,7,8,,,,,2,0,2,0,down,1.2087219212,OR,f,21,60.0107546239,Set,2017_12_20_1953,
"[2.7, 2.7]",3,0,7,7,8,,,,,3,0,3,0,right,0.400459002703,OR,f,21,60.0107546239,Set,2017_12_20_1953,
"[2.7, 2.7]",3,0,7,7,8,,,,,4,0,4,0,down,0.383703506552,OR,f,21,60.0107546239,Set,2017_12_20_1953,
"[2.7, 2.7]",3,0,7,7,8,,,,,5,0,5,0,left,1.07546506205,OR,f,21,60.0107546239,Set,2017_12_20_1953,
"[2.7, 2.7]",3,0,7,7,8,,,,,6,0,6,0,right,0.842118912726,OR,f,21,60.0107546239,Set,2017_12_20_1953,
"[2.7, 2.7]",3,0,7,7,8,,,,,7,0,7,0,down,0.992117846967,OR,f,21,60.0107546239,Set,2017_12_20_1953,
"[2.7, 2.7]",3,0,7,7,8,,,,,8,0,8,0,down,0.308770553092,OR,f,21,60.0107546239,Set,2017_12_20_1953,
"[2.7, 2.7]",3,0,7,7,8,,,,,9,0,9,0,left,0.642120333854,OR,f,21,60.0107546239,Set,2017_12_20_1953,
"[2.7, 2.7]",3,0,7,7,8,,,,,10,0,10,0,down,0.492111925967,OR,f,21,60.0107546239,Set,2017_12_20_1953,
"[2.7, 2.7]",3,0,7,7,8,,,,,11,0,11,0,down,1.55877627677,OR,f,21,60.0107546239,Set,2017_12_20_1953,
"[2.7, 2.7]",3,0,7,7,8,,,,,12,0,12,0,right,0.308804500732,OR,f,21,60.0107546239,Set,2017_12_20_1953,
"[2.7, 2.7]",3,0,7,7,8,,,,,13,0,13,0,down,0.658772803028,OR,f,21,60.0107546239,Set,2017_12_20_1953,
"[2.7, 2.7]",3,0,7,7,8,,,,,14,0,14,0,down,0.408789579524,OR,f,21,60.0107546239,Set,2017_12_20_1953,
"[3.0, 3.0]",2,0,8,8,25,,,,,0,0,0,0,left,0.692133794539,OR,f,21,60.0107546239,Set,2017_12_20_1953,
"[3.0, 3.0]",2,0,8,8,25,,,,,1,0,1,0,down,0.392137110233,OR,f,21,60.0107546239,Set,2017_12_20_1953,
"[3.0, 3.0]",2,0,8,8,25,,,,,2,0,2,0,right,0.308808053378,OR,f,21,60.0107546239,Set,2017_12_20_1953,
"[3.0, 3.0]",2,0,8,8,25,,,,,3,0,3,0,left,0.275467193685,OR,f,21,60.0107546239,Set,2017_12_20_1953,
"[3.0, 3.0]",2,0,8,8,25,,,,,4,0,4,0,right,0.275412324816,OR,f,21,60.0107546239,Set,2017_12_20_1953,
"[3.0, 3.0]",2,0,8,8,25,,,,,5,0,5,0,down,0.392122110236,OR,f,21,60.0107546239,Set,2017_12_20_1953,
"[3.0, 3.0]",2,0,8,8,25,,,,,6,0,6,0,left,0.625396416872,OR,f,21,60.0107546239,Set,2017_12_20_1953,
"[3.0, 3.0]",2,0,8,8,25,,,,,7,0,7,0,down,0.375463325181,OR,f,21,60.0107546239,Set,2017_12_20_1953,
"[3.0, 3.0]",2,0,8,8,25,,,,,8,0,8,0,left,0.308845553547,OR,f,21,60.0107546239,Set,2017_12_20_1953,
"[3.0, 3.0]",2,0,8,8,25,,,,,9,0,9,0,down,0.342119307606,OR,f,21,60.0107546239,Set,2017_12_20_1953,
"[3.0, 3.0]",2,0,8,8,25,,,,,10,0,10,0,down,0.325462496257,OR,f,21,60.0107546239,Set,2017_12_20_1953,
"[3.0, 3.0]",1,0,9,9,24,,,,,0,0,0,0,left,0.792113346979,OR,f,21,60.0107546239,Set,2017_12_20_1953,
"[3.0, 3.0]",1,0,9,9,24,,,,,1,0,1,0,down,0.358788355836,OR,f,21,60.0107546239,Set,2017_12_20_1953,
"[3.0, 3.0]",1,0,9,9,24,,,,,2,0,2,0,left,0.592105688993,OR,f,21,60.0107546239,Set,2017_12_20_1953,
"[3.0, 3.0]",1,0,9,9,24,,,,,3,0,3,0,right,0.308800947969,OR,f,21,60.0107546239,Set,2017_12_20_1953,
"[3.0, 3.0]",1,0,9,9,24,,,,,4,0,4,0,right,0.325439996086,OR,f,21,60.0107546239,Set,2017_12_20_1953,
"[3.0, 3.0]",1,0,9,9,24,,,,,5,0,5,0,left,0.475461825146,OR,f,21,60.0107546239,Set,2017_12_20_1953,
"[3.0, 3.0]",1,0,9,9,24,,,,,6,0,6,0,left,0.358831777121,OR,f,21,60.0107546239,Set,2017_12_20_1953,
"[3.0, 3.0]",1,0,9,9,24,,,,,7,0,7,0,left,0.358792303246,OR,f,21,60.0107546239,Set,2017_12_20_1953,
"[3.0, 3.0]",1,0,9,9,24,,,,,8,0,8,0,right,0.325459733023,OR,f,21,60.0107546239,Set,2017_12_20_1953,
"[3.0, 3.0]",1,0,9,9,24,,,,,9,0,9,0,down,0.325475127902,OR,f,21,60.0107546239,Set,2017_12_20_1953,
"[3.0, 3.0]",1,0,9,9,24,,,,,10,0,10,0,left,0.258803277044,OR,f,21,60.0107546239,Set,2017_12_20_1953,
"[3.0, 3.0]",1,0,9,9,24,,,,,11,0,11,0,down,0.442205439671,OR,f,21,60.0107546239,Set,2017_12_20_1953,
"[3.0, 3.0]",1,0,9,9,24,,,,,12,0,12,0,left,0.508794790134,OR,f,21,60.0107546239,Set,2017_12_20_1953,
"[3.0, 3.0]",1,0,9,9,24,,,,,13,0,13,0,left,0.408823132399,OR,f,21,60.0107546239,Set,2017_12_20_1953,
"[3.0, 3.0]",1,0,9,9,24,,,,,14,0,14,0,left,0.475451956736,OR,f,21,60.0107546239,Set,2017_12_20_1953,
"[3.0, 3.0]",1,0,9,9,24,,,,,15,0,15,0,down,0.292076241458,OR,f,21,60.0107546239,Set,2017_12_20_1953,
"[3.0, 3.0]",1,0,9,9,24,,,,,16,0,16,0,left,0.525458706776,OR,f,21,60.0107546239,Set,2017_12_20_1953,
"[3.0, 3.0]",1,0,9,9,24,,,,,17,0,17,0,left,0.37544714089,OR,f,21,60.0107546239,Set,2017_12_20_1953,
"[3.0, 3.0]",1,0,9,9,24,,,,,18,0,18,0,down,0.442134781391,OR,f,21,60.0107546239,Set,2017_12_20_1953,
"[3.0, 3.0]",1,0,9,9,24,,,,,19,0,19,0,down,0.325441180263,OR,f,21,60.0107546239,Set,2017_12_20_1953,
"[2.7, 2.7]",5,0,10,10,10,,,,,0,0,0,0,down,0.975457088323,OR,f,21,60.0107546239,Set,2017_12_20_1953,
"[2.7, 2.7]",5,0,10,10,10,,,,,1,0,1,0,left,0.525450022542,OR,f,21,60.0107546239,Set,2017_12_20_1953,
"[2.7, 2.7]",5,0,10,10,10,,,,,2,0,2,0,right,0.225477417349,OR,f,21,60.0107546239,Set,2017_12_20_1953,
"[2.7, 2.7]",5,0,10,10,10,,,,,3,0,3,0,right,0.275475483155,OR,f,21,60.0107546239,Set,2017_12_20_1953,
"[2.7, 2.7]",5,0,10,10,10,,,,,4,0,4,0,right,0.308835685137,OR,f,21,60.0107546239,Set,2017_12_20_1953,
"[2.7, 2.7]",5,0,10,10,10,,,,,5,0,5,0,right,0.275493246387,OR,f,21,60.0107546239,Set,2017_12_20_1953,
"[2.7, 2.7]",5,0,10,10,10,,,,,6,0,6,0,down,0.44214149192,OR,f,21,60.0107546239,Set,2017_12_20_1953,
"[2.7, 2.7]",5,0,10,10,10,,,,,7,0,7,0,down,0.358777303016,OR,f,21,60.0107546239,Set,2017_12_20_1953,
"[2.6, 2.6]",3,0,11,11,2,,,,,0,0,0,0,down,1.14211401809,OR,f,21,60.0107546239,Set,2017_12_20_1953,
"[2.6, 2.6]",3,0,11,11,2,,,,,1,0,1,0,right,0.375449904124,OR,f,21,60.0107546239,Set,2017_12_20_1953,
"[2.6, 2.6]",3,0,11,11,2,,,,,2,0,2,0,right,0.425482312101,OR,f,21,60.0107546239,Set,2017_12_20_1953,
"[2.6, 2.6]",3,0,11,11,2,,,,,3,0,3,0,right,0.208774026716,OR,f,21,60.0107546239,Set,2017_12_20_1953,
"[2.6, 2.6]",3,0,11,11,2,,,,,4,0,4,0,right,0.275447456632,OR,f,21,60.0107546239,Set,2017_12_20_1953,
"[2.6, 2.6]",3,0,11,11,2,,,,,5,0,5,0,down,0.442116623279,OR,f,21,60.0107546239,Set,2017_12_20_1953,
"[2.6, 2.6]",3,0,11,11,2,,,,,6,0,6,0,right,0.375468851533,OR,f,21,60.0107546239,Set,2017_12_20_1953,
"[2.6, 2.6]",3,0,11,11,2,,,,,7,0,7,0,right,1.3420972022,OR,f,21,60.0107546239,Set,2017_12_20_1953,
"[2.6, 2.6]",3,0,11,11,2,,,,,8,0,8,0,right,0.308805684908,OR,f,21,60.0107546239,Set,2017_12_20_1953,
"[2.6, 2.6]",3,0,11,11,2,,,,,9,0,9,0,right,0.842087728437,OR,f,21,60.0107546239,Set,2017_12_20_1953,
"[2.6, 2.6]",3,0,11,11,2,,,,,10,0,10,0,left,0.442127676099,OR,f,21,60.0107546239,Set,2017_12_20_1953,
"[2.6, 2.6]",3,0,11,11,2,,,,,11,0,11,0,right,0.225440706592,OR,f,21,60.0107546239,Set,2017_12_20_1953,
"[2.6, 2.6]",3,0,11,11,2,,,,,12,0,12,0,left,0.192118794424,OR,f,21,60.0107546239,Set,2017_12_20_1953,
"[2.6, 2.6]",3,0,11,11,2,,,,,13,0,13,0,right,0.575460719876,OR,f,21,60.0107546239,Set,2017_12_20_1953,
"[2.6, 2.6]",3,0,11,11,2,,,,,14,0,14,0,left,0.792220716015,OR,f,21,60.0107546239,Set,2017_12_20_1953,
"[2.6, 2.6]",3,0,11,11,2,,,,,15,0,15,0,right,0.333542018896,OR,f,21,60.0107546239,Set,2017_12_20_1953,
"[2.6, 2.6]",3,0,11,11,2,,,,,16,0,16,0,right,0.208794553299,OR,f,21,60.0107546239,Set,2017_12_20_1953,
"[2.6, 2.6]",3,0,11,11,2,,,,,17,0,17,0,right,0.258769329404,OR,f,21,60.0107546239,Set,2017_12_20_1953,
"[2.6, 2.6]",3,0,11,11,2,,,,,18,0,18,0,left,0.392115794355,OR,f,21,60.0107546239,Set,2017_12_20_1953,
"[2.6, 2.6]",3,0,11,11,2,,,,,19,0,19,0,right,0.208790211123,OR,f,21,60.0107546239,Set,2017_12_20_1953,
"[2.6, 2.6]",3,0,11,11,2,,,,,20,0,20,0,left,0.392146584112,OR,f,21,60.0107546239,Set,2017_12_20_1953,
"[2.6, 2.6]",3,0,11,11,2,,,,,21,0,21,0,right,1.27544627246,OR,f,21,60.0107546239,Set,2017_12_20_1953,
"[2.6, 2.6]",3,0,11,11,2,,,,,22,0,22,0,right,0.892141452408,OR,f,21,60.0107546239,Set,2017_12_20_1953,
"[2.6, 2.6]",3,0,11,11,2,,,,,23,0,23,0,left,2.3587705926,OR,f,21,60.0107546239,Set,2017_12_20_1953,
"[2.6, 2.6]",3,0,11,11,2,,,,,24,0,24,0,right,0.308797000558,OR,f,21,60.0107546239,Set,2017_12_20_1953,
"[2.6, 2.6]",3,0,11,11,2,,,,,25,0,25,0,left,1.02546423301,OR,f,21,60.0107546239,Set,2017_12_20_1953,
"[2.6, 2.6]",3,0,11,11,2,,,,,26,0,26,0,right,0.325468022493,OR,f,21,60.0107546239,Set,2017_12_20_1953,
"[2.6, 2.6]",3,0,11,11,2,,,,,27,0,27,0,right,0.358796645305,OR,f,21,60.0107546239,Set,2017_12_20_1953,
"[2.6, 2.6]",3,0,11,11,2,,,,,28,0,28,0,right,0.40876984247,OR,f,21,60.0107546239,Set,2017_12_20_1953,
"[2.6, 2.6]",3,0,11,11,2,,,,,29,0,29,0,down,1.10881026392,OR,f,21,60.0107546239,Set,2017_12_20_1953,
"[2.6, 2.6]",3,0,11,11,2,,,,,30,0,30,0,left,0.808776474209,OR,f,21,60.0107546239,Set,2017_12_20_1953,
"[2.6, 2.6]",3,0,11,11,2,,,,,31,0,31,0,left,0.875460167299,OR,f,21,60.0107546239,Set,2017_12_20_1953,
"[2.6, 2.6]",3,0,11,11,2,,,,,32,0,32,0,right,0.392156057875,OR,f,21,60.0107546239,Set,2017_12_20_1953,
"[2.6, 2.6]",3,0,11,11,2,,,,,33,0,33,0,left,0.392126847059,OR,f,21,60.0107546239,Set,2017_12_20_1953,
"[2.6, 2.6]",3,0,11,11,2,,,,,34,0,34,0,down,0.792148478795,OR,f,21,60.0107546239,Set,2017_12_20_1953,
"[2.6, 2.6]",3,0,11,11,2,,,,,35,0,35,0,left,0.475455509382,OR,f,21,60.0107546239,Set,2017_12_20_1953,
"[2.6, 2.6]",3,0,11,11,2,,,,,36,0,36,0,left,0.375468851533,OR,f,21,60.0107546239,Set,2017_12_20_1953,
"[2.6, 2.6]",3,0,11,11,2,,,,,37,0,37,0,down,0.492105610087,OR,f,21,60.0107546239,Set,2017_12_20_1953,
"[2.6, 2.6]",3,0,11,11,2,,,,,38,0,38,0,down,0.742128702346,OR,f,21,60.0107546239,Set,2017_12_20_1953,
"[2.6, 2.6]",3,0,11,11,2,,,,,39,0,39,0,left,0.408782474231,OR,f,21,60.0107546239,Set,2017_12_20_1953,
"[2.6, 2.6]",3,0,11,11,2,,,,,40,0,40,0,down,0.742138176109,OR,f,21,60.0107546239,Set,2017_12_20_1953,
"[2.6, 2.6]",3,0,11,11,2,,,,,41,0,41,0,down,0.242194229155,OR,f,21,60.0107546239,Set,2017_12_20_1953,
"[2.6, 2.6]",4,0,12,12,3,,,,,0,0,0,0,left,0.425478759455,OR,f,21,60.0107546239,Set,2017_12_20_1953,
"[2.6, 2.6]",4,0,12,12,3,,,,,1,0,1,0,left,2.34208535997,OR,f,21,60.0107546239,Set,2017_12_20_1953,
"[2.6, 2.6]",4,0,12,12,3,,,,,2,0,2,0,down,1.30877607944,OR,f,21,60.0107546239,Set,2017_12_20_1953,
"[2.6, 2.6]",4,0,12,12,3,,,,,3,0,3,0,left,0.425464154105,OR,f,21,60.0107546239,Set,2017_12_20_1953,
"[2.6, 2.6]",4,0,12,12,3,,,,,4,0,4,0,down,0.975461035618,OR,f,21,60.0107546239,Set,2017_12_20_1953,
"[2.6, 2.6]",4,0,12,12,3,,,,,5,0,5,0,left,0.642121518147,OR,f,21,60.0107546239,Set,2017_12_20_1953,
"[2.6, 2.6]",4,0,12,12,3,,,,,6,0,6,0,left,0.358767434605,OR,f,21,60.0107546239,Set,2017_12_20_1953,
"[2.6, 2.6]",4,0,12,12,3,,,,,7,0,7,0,left,0.792095188983,OR,f,21,60.0107546239,Set,2017_12_20_1953,
"[2.6, 2.6]",4,0,12,12,3,,,,,8,0,8,0,left,0.575429930235,OR,f,21,60.0107546239,Set,2017_12_20_1953,
"[2.6, 2.6]",4,0,12,12,3,,,,,9,0,9,0,left,0.442131228745,OR,f,21,60.0107546239,Set,2017_12_20_1953,
"[2.6, 2.6]",4,0,12,12,3,,,,,10,0,10,0,left,0.258781961049,OR,f,21,60.0107546239,Set,2017_12_20_1953,
"[2.6, 2.6]",4,0,12,12,3,,,,,11,0,11,0,left,1.15878425061,OR,f,21,60.0107546239,Set,2017_12_20_1953,
"[2.6, 2.6]",4,0,12,12,3,,,,,12,0,12,0,right,0.458786066272,OR,f,21,60.0107546239,Set,2017_12_20_1953,
"[2.6, 2.6]",4,0,12,12,3,,,,,13,0,13,0,left,0.258783145226,OR,f,21,60.0107546239,Set,2017_12_20_1953,
"[2.6, 2.6]",4,0,12,12,3,,,,,14,0,14,0,left,0.308774895268,OR,f,21,60.0107546239,Set,2017_12_20_1953,
"[2.6, 2.6]",4,0,12,12,3,,,,,15,0,15,0,left,0.242123965523,OR,f,21,60.0107546239,Set,2017_12_20_1953,
"[2.6, 2.6]",4,0,12,12,3,,,,,16,0,16,0,left,0.508763605729,OR,f,21,60.0107546239,Set,2017_12_20_1953,
"[2.6, 2.6]",4,0,12,12,3,,,,,17,0,17,0,left,0.992108767969,OR,f,21,60.0107546239,Set,2017_12_20_1953,
"[2.6, 2.6]",4,0,12,12,3,,,,,18,0,18,0,left,0.875298324157,OR,f,21,60.0107546239,Set,2017_12_20_1953,
"[2.6, 2.6]",4,0,12,12,3,,,,,19,0,19,0,right,0.425448759343,OR,f,21,60.0107546239,Set,2017_12_20_1953,
"[2.6, 2.6]",4,0,12,12,3,,,,,20,0,20,0,left,0.325460522552,OR,f,21,60.0107546239,Set,2017_12_20_1953,
"[2.6, 2.6]",4,0,12,12,3,,,,,21,0,21,0,left,0.242120412877,OR,f,21,60.0107546239,Set,2017_12_20_1953,
"[2.6, 2.6]",4,0,12,12,3,,,,,22,0,22,0,left,0.192154715653,OR,f,21,60.0107546239,Set,2017_12_20_1953,
"[2.6, 2.6]",4,0,12,12,3,,,,,23,0,23,0,left,0.142134544556,OR,f,21,60.0107546239,Set,2017_12_20_1953,
"[2.6, 2.6]",4,0,12,12,3,,,,,24,0,24,0,left,0.175453693606,OR,f,21,60.0107546239,Set,2017_12_20_1953,
"[2.6, 2.6]",4,0,12,12,3,,,,,25,0,25,0,left,0.225461232942,OR,f,21,60.0107546239,Set,2017_12_20_1953,
"[2.6, 2.6]",4,0,12,12,3,,,,,26,0,26,0,left,0.441961490782,OR,f,21,60.0107546239,Set,2017_12_20_1953,
"[2.6, 2.6]",4,0,12,12,3,,,,,27,0,27,0,left,0.208811132354,OR,f,21,60.0107546239,Set,2017_12_20_1953,
"[2.6, 2.6]",4,0,12,12,3,,,,,28,0,28,0,left,0.15023419878,OR,f,21,60.0107546239,Set,2017_12_20_1953,
"[2.6, 2.6]",4,0,12,12,3,,,,,29,0,29,0,left,0.0754611146403,OR,f,21,60.0107546239,Set,2017_12_20_1953,
"[2.6, 2.6]",4,0,12,12,3,,,,,30,0,30,0,left,0.0421099916566,OR,f,21,60.0107546239,Set,2017_12_20_1953,
"[2.6, 2.6]",4,0,12,12,3,,,,,31,0,31,0,right,0.325486970018,OR,f,21,60.0107546239,Set,2017_12_20_1953,
"[2.6, 2.6]",4,0,12,12,3,,,,,32,0,32,0,left,0.592130952398,OR,f,21,60.0107546239,Set,2017_12_20_1953,
"[2.6, 2.6]",4,0,12,12,3,,,,,33,0,33,0,left,0.292127952329,OR,f,21,60.0107546239,Set,2017_12_20_1953,
"[2.6, 2.6]",4,0,12,12,3,,,,,34,0,34,0,left,0.342131544487,OR,f,21,60.0107546239,Set,2017_12_20_1953,
"[2.6, 2.6]",4,0,12,12,3,,,,,35,0,35,0,left,0.316899023368,OR,f,21,60.0107546239,Set,2017_12_20_1953,
"[2.6, 2.6]",4,0,12,12,3,,,,,36,0,36,0,left,0.242129097111,OR,f,21,60.0107546239,Set,2017_12_20_1953,
"[2.6, 2.6]",4,0,12,12,3,,,,,37,0,37,0,left,0.275455351453,OR,f,21,60.0107546239,Set,2017_12_20_1953,
"[2.6, 2.6]",4,0,12,12,3,,,,,38,0,38,0,left,0.225454127765,OR,f,21,60.0107546239,Set,2017_12_20_1953,
"[2.6, 2.6]",4,0,12,12,3,,,,,39,0,39,0,left,0.142127833911,OR,f,21,60.0107546239,Set,2017_12_20_1953,
"[2.6, 2.6]",4,0,12,12,3,,,,,40,0,40,0,down,1.39209289954,OR,f,21,60.0107546239,Set,2017_12_20_1953,
"[2.6, 2.6]",4,0,12,12,3,,,,,41,0,41,0,right,0.325482233195,OR,f,21,60.0107546239,Set,2017_12_20_1953,
"[2.6, 2.6]",4,0,12,12,3,,,,,42,0,42,0,right,0.325439996086,OR,f,21,60.0107546239,Set,2017_12_20_1953,
"[2.6, 2.6]",4,0,12,12,3,,,,,43,0,43,0,right,0.225458864705,OR,f,21,60.0107546239,Set,2017_12_20_1953,
"[2.6, 2.6]",4,0,12,12,3,,,,,44,0,44,0,down,1.39215684729,OR,f,21,60.0107546239,Set,2017_12_20_1953,
"[2.6, 2.6]",4,0,12,12,3,,,,,45,0,45,0,down,0.225476233172,OR,f,21,60.0107546239,Set,2017_12_20_1953,
"[2.9, 2.9]",4,0,13,13,21,,,,,0,0,0,0,left,0.333613466588,OR,f,21,60.0107546239,Set,2017_12_20_1953,
"[2.9, 2.9]",4,0,13,13,21,,,,,1,0,1,0,right,1.05879246118,OR,f,21,60.0107546239,Set,2017_12_20_1953,
"[2.9, 2.9]",4,0,13,13,21,,,,,2,0,2,0,left,0.242117649643,OR,f,21,60.0107546239,Set,2017_12_20_1953,
"[2.9, 2.9]",4,0,13,13,21,,,,,3,0,3,0,right,0.458819619147,OR,f,21,60.0107546239,Set,2017_12_20_1953,
"[2.9, 2.9]",4,0,13,13,21,,,,,4,0,4,0,down,1.20878823742,OR,f,21,60.0107546239,Set,2017_12_20_1953,
"[2.9, 2.9]",4,0,13,13,21,,,,,5,0,5,0,left,0.242111333879,OR,f,21,60.0107546239,Set,2017_12_20_1953,
"[2.9, 2.9]",4,0,13,13,21,,,,,6,0,6,0,left,1.24209909688,OR,f,21,60.0107546239,Set,2017_12_20_1953,
"[2.9, 2.9]",4,0,13,13,21,,,,,7,0,7,0,left,0.692125899717,OR,f,21,60.0107546239,Set,2017_12_20_1953,
"[2.9, 2.9]",4,0,13,13,21,,,,,8,0,8,0,left,0.275481799035,OR,f,21,60.0107546239,Set,2017_12_20_1953,
"[2.9, 2.9]",4,0,13,13,21,,,,,9,0,9,0,left,0.375456614536,OR,f,21,60.0107546239,Set,2017_12_20_1953,
"[2.9, 2.9]",4,0,13,13,21,,,,,10,0,10,0,left,0.342128386488,OR,f,21,60.0107546239,Set,2017_12_20_1953,
"[2.9, 2.9]",4,0,13,13,21,,,,,11,0,11,0,left,0.575468219933,OR,f,21,60.0107546239,Set,2017_12_20_1953,
"[2.9, 2.9]",4,0,13,13,21,,,,,12,0,12,0,left,0.242103833705,OR,f,21,60.0107546239,Set,2017_12_20_1953,
"[2.9, 2.9]",4,0,13,13,21,,,,,13,0,13,0,left,0.525446075131,OR,f,21,60.0107546239,Set,2017_12_20_1953,
"[2.9, 2.9]",4,0,13,13,21,,,,,14,0,14,0,left,0.758818277041,OR,f,21,60.0107546239,Set,2017_12_20_1953,
"[2.9, 2.9]",4,0,13,13,21,,,,,15,0,15,0,left,0.29212597874,OR,f,21,60.0107546239,Set,2017_12_20_1953,
"[2.9, 2.9]",4,0,13,13,21,,,,,16,0,16,0,left,0.408773000468,OR,f,21,60.0107546239,Set,2017_12_20_1953,
"[2.9, 2.9]",4,0,13,13,21,,,,,17,0,17,0,left,0.308809632319,OR,f,21,60.0107546239,Set,2017_12_20_1953,
"[2.9, 2.9]",4,0,13,13,21,,,,,18,0,18,0,down,0.675475009484,OR,f,21,60.0107546239,Set,2017_12_20_1953,
"[2.9, 2.9]",4,0,13,13,21,,,,,19,0,19,0,left,0.342088517966,OR,f,21,60.0107546239,Set,2017_12_20_1953,
"[2.9, 2.9]",4,0,13,13,21,,,,,20,0,20,0,left,0.275435614516,OR,f,21,60.0107546239,Set,2017_12_20_1953,
"[2.9, 2.9]",4,0,13,13,21,,,,,21,0,21,0,left,0.208789816359,OR,f,21,60.0107546239,Set,2017_12_20_1953,
"[2.9, 2.9]",4,0,13,13,21,,,,,22,0,22,0,left,0.292115715449,OR,f,21,60.0107546239,Set,2017_12_20_1953,
"[2.9, 2.9]",4,0,13,13,21,,,,,23,0,23,0,left,0.192142084124,OR,f,21,60.0107546239,Set,2017_12_20_1953,
"[2.9, 2.9]",4,0,13,13,21,,,,,24,0,24,0,left,0.925464548869,OR,f,21,60.0107546239,Set,2017_12_20_1953,
"[2.9, 2.9]",4,0,13,13,21,,,,,25,0,25,0,down,0.77543956181,OR,f,21,60.0107546239,Set,2017_12_20_1953,
"[2.9, 2.9]",4,0,13,13,21,,,,,26,0,26,0,left,0.442115439218,OR,f,21,60.0107546239,Set,2017_12_20_1953,
"[2.9, 2.9]",4,0,13,13,21,,,,,27,0,27,0,left,0.592132136575,OR,f,21,60.0107546239,Set,2017_12_20_1953,
"[2.9, 2.9]",4,0,13,13,21,,,,,28,0,28,0,left,0.292151241913,OR,f,21,60.0107546239,Set,2017_12_20_1953,
"[2.9, 2.9]",4,0,13,13,21,,,,,29,0,29,0,left,0.258785118931,OR,f,21,60.0107546239,Set,2017_12_20_1953,
"[2.9, 2.9]",4,0,13,13,21,,,,,30,0,30,0,left,0.192119189072,OR,f,21,60.0107546239,Set,2017_12_20_1953,
"[2.9, 2.9]",4,0,13,13,21,,,,,31,0,31,0,left,0.158806750667,OR,f,21,60.0107546239,Set,2017_12_20_1953,
"[2.9, 2.9]",4,0,13,13,21,,,,,32,0,32,0,left,0.20880600065,OR,f,21,60.0107546239,Set,2017_12_20_1953,
"[2.9, 2.9]",4,0,13,13,21,,,,,33,0,33,0,left,0.508802684839,OR,f,21,60.0107546239,Set,2017_12_20_1953,
"[2.9, 2.9]",4,0,13,13,21,,,,,34,0,34,0,down,0.442131623509,OR,f,21,60.0107546239,Set,2017_12_20_1953,
"[2.9, 2.9]",4,0,13,13,21,,,,,35,0,35,0,down,0.308783184737,OR,f,21,60.0107546239,Set,2017_12_20_1953,
"[2.7, 2.7]",2,0,14,14,7,,,,,0,0,0,0,left,1.17545408825,OR,f,21,60.0107546239,Set,2017_12_20_1953,
"[2.7, 2.7]",2,0,14,14,7,,,,,1,0,1,0,left,0.358778487425,OR,f,21,60.0107546239,Set,2017_12_20_1953,
"[2.7, 2.7]",2,0,14,14,7,,,,,2,0,2,0,left,0.542119465419,OR,f,21,60.0107546239,Set,2017_12_20_1953,
"[2.7, 2.7]",2,0,14,14,7,,,,,3,0,3,0,left,0.375403719489,OR,f,21,60.0107546239,Set,2017_12_20_1953,
"[2.7, 2.7]",2,0,14,14,7,,,,,4,0,4,0,down,0.425455469871,OR,f,21,60.0107546239,Set,2017_12_20_1953,
"[2.7, 2.7]",2,0,14,14,7,,,,,5,0,5,0,down,0.508874132647,OR,f,21,60.0107546239,Set,2017_12_20_1953,
"[2.7, 2.7]",4,0,15,15,9,,,,,0,0,0,0,left,3.55021714594,OR,f,21,60.0107546239,Set,2017_12_20_1953,
"[2.7, 2.7]",4,0,15,15,9,,,,,1,0,1,0,down,0.975423535448,OR,f,21,60.0107546239,Set,2017_12_20_1953,
"[2.7, 2.7]",4,0,15,15,9,,,,,2,0,2,0,left,0.55879048747,OR,f,21,60.0107546239,Set,2017_12_20_1953,
"[2.7, 2.7]",4,0,15,15,9,,,,,3,0,3,0,down,0.425444811815,OR,f,21,60.0107546239,Set,2017_12_20_1953,
"[2.7, 2.7]",4,0,15,15,9,,,,,4,0,4,0,down,0.316812575446,OR,f,21,60.0107546239,Set,2017_12_20_1953,
"[2.7, 2.7]",1,0,16,16,6,,,,,0,0,0,0,left,1.36688406277,OR,f,21,60.0107546239,Set,2017_12_20_1953,
"[2.7, 2.7]",1,0,16,16,6,,,,,1,0,1,0,left,0.433563808328,OR,f,21,60.0107546239,Set,2017_12_20_1953,
"[2.7, 2.7]",1,0,16,16,6,,,,,2,0,2,0,left,0.708344155806,OR,f,21,60.0107546239,Set,2017_12_20_1953,
"[2.7, 2.7]",1,0,16,16,6,,,,,3,0,3,0,left,0.475028796121,OR,f,21,60.0107546239,Set,2017_12_20_1953,
"[2.7, 2.7]",1,0,16,16,6,,,,,4,0,4,0,left,0.308788711089,OR,f,21,60.0107546239,Set,2017_12_20_1953,
"[2.7, 2.7]",1,0,16,16,6,,,,,5,0,5,0,down,0.5835777428,OR,f,21,60.0107546239,Set,2017_12_20_1953,
"[2.7, 2.7]",1,0,16,16,6,,,,,6,0,6,0,down,0.62545799627,OR,f,21,60.0107546239,Set,2017_12_20_1953,
"[3.0, 3.0]",5,0,17,17,28,,,,,0,0,0,0,left,0.40878089529,OR,f,21,60.0107546239,Set,2017_12_20_1953,
"[3.0, 3.0]",5,0,17,17,28,,,,,1,0,1,0,right,0.458771855687,OR,f,21,60.0107546239,Set,2017_12_20_1953,
"[3.0, 3.0]",5,0,17,17,28,,,,,2,0,2,0,left,0.542123018182,OR,f,21,60.0107546239,Set,2017_12_20_1953,
"[3.0, 3.0]",5,0,17,17,28,,,,,3,0,3,0,left,0.875463325181,OR,f,21,60.0107546239,Set,2017_12_20_1953,
"[3.0, 3.0]",5,0,17,17,28,,,,,4,0,4,0,left,0.925451127696,OR,f,21,60.0107546239,Set,2017_12_20_1953,
"[3.0, 3.0]",5,0,17,17,28,,,,,5,0,5,0,left,0.275499562267,OR,f,21,60.0107546239,Set,2017_12_20_1953,
"[3.0, 3.0]",5,0,17,17,28,,,,,6,0,6,0,left,0.292129926034,OR,f,21,60.0107546239,Set,2017_12_20_1953,
"[3.0, 3.0]",5,0,17,17,28,,,,,7,0,7,0,down,0.658801224316,OR,f,21,60.0107546239,Set,2017_12_20_1953,
"[3.0, 3.0]",5,0,17,17,28,,,,,8,0,8,0,left,0.308782395208,OR,f,21,60.0107546239,Set,2017_12_20_1953,
"[3.0, 3.0]",5,0,17,17,28,,,,,9,0,9,0,down,0.675289481995,OR,f,21,60.0107546239,Set,2017_12_20_1953,
"[3.0, 3.0]",5,0,17,17,28,,,,,10,0,10,0,left,0.14213849185,OR,f,21,60.0107546239,Set,2017_12_20_1953,
"[3.0, 3.0]",5,0,17,17,28,,,,,11,0,11,0,left,0.158800434903,OR,f,21,60.0107546239,Set,2017_12_20_1953,
"[3.0, 3.0]",5,0,17,17,28,,,,,12,0,12,0,left,0.308798579616,OR,f,21,60.0107546239,Set,2017_12_20_1953,
"[3.0, 3.0]",5,0,17,17,28,,,,,13,0,13,0,left,0.29208808369,OR,f,21,60.0107546239,Set,2017_12_20_1953,
"[3.0, 3.0]",5,0,17,17,28,,,,,14,0,14,0,left,0.22546439094,OR,f,21,60.0107546239,Set,2017_12_20_1953,
"[3.0, 3.0]",5,0,17,17,28,,,,,15,0,15,0,left,0.175442246022,OR,f,21,60.0107546239,Set,2017_12_20_1953,
"[3.0, 3.0]",5,0,17,17,28,,,,,16,0,16,0,left,0.225444259355,OR,f,21,60.0107546239,Set,2017_12_20_1953,
"[3.0, 3.0]",5,0,17,17,28,,,,,17,0,17,0,left,0.0754733515205,OR,f,21,60.0107546239,Set,2017_12_20_1953,
"[3.0, 3.0]",5,0,17,17,28,,,,,18,0,18,0,down,0.392128820764,OR,f,21,60.0107546239,Set,2017_12_20_1953,
"[3.0, 3.0]",5,0,17,17,28,,,,,19,0,19,0,left,0.575447298819,OR,f,21,60.0107546239,Set,2017_12_20_1953,
"[3.0, 3.0]",5,0,17,17,28,,,,,20,0,20,0,left,0.358810461243,OR,f,21,60.0107546239,Set,2017_12_20_1953,
"[3.0, 3.0]",5,0,17,17,28,,,,,21,0,21,0,left,0.30878555309,OR,f,21,60.0107546239,Set,2017_12_20_1953,
"[3.0, 3.0]",5,0,17,17,28,,,,,22,0,22,0,down,0.45881211909,OR,f,21,60.0107546239,Set,2017_12_20_1953,
"[3.0, 3.0]",5,0,17,17,28,,,,,23,0,23,0,left,1.04211038642,OR,f,21,60.0107546239,Set,2017_12_20_1953,
"[3.0, 3.0]",5,0,17,17,28,,,,,24,0,24,0,down,0.558867066866,OR,f,21,60.0107546239,Set,2017_12_20_1953,
"[3.0, 3.0]",5,0,17,17,28,,,,,25,0,25,0,left,0.475408535451,OR,f,21,60.0107546239,Set,2017_12_20_1953,
"[3.0, 3.0]",5,0,17,17,28,,,,,26,0,26,0,down,0.708790605771,OR,f,21,60.0107546239,Set,2017_12_20_1953,
"[3.0, 3.0]",5,0,17,17,28,,,,,27,0,27,0,down,0.566905141808,OR,f,21,60.0107546239,Set,2017_12_20_1953,
"[2.8, 2.8]",3,0,18,18,14,,,,,0,0,0,0,left,0.442122149747,OR,f,21,60.0107546239,Set,2017_12_20_1953,
"[2.8, 2.8]",3,0,18,18,14,,,,,1,0,1,0,left,0.342133912956,OR,f,21,60.0107546239,Set,2017_12_20_1953,
"[2.8, 2.8]",3,0,18,18,14,,,,,2,0,2,0,left,0.375454246183,OR,f,21,60.0107546239,Set,2017_12_20_1953,
"[2.8, 2.8]",3,0,18,18,14,,,,,3,0,3,0,down,0.758761829347,OR,f,21,60.0107546239,Set,2017_12_20_1953,
"[2.8, 2.8]",3,0,18,18,14,,,,,4,0,4,0,down,0.40878444782,OR,f,21,60.0107546239,Set,2017_12_20_1953,
"[2.8, 2.8]",3,0,18,18,14,,,,,5,0,5,0,left,0.658807934844,OR,f,21,60.0107546239,Set,2017_12_20_1953,
"[2.8, 2.8]",3,0,18,18,14,,,,,6,0,6,0,left,0.625433522393,OR,f,21,60.0107546239,Set,2017_12_20_1953,
"[2.8, 2.8]",3,0,18,18,14,,,,,7,0,7,0,left,0.325449469849,OR,f,21,60.0107546239,Set,2017_12_20_1953,
"[2.8, 2.8]",3,0,18,18,14,,,,,8,0,8,0,left,0.242116465466,OR,f,21,60.0107546239,Set,2017_12_20_1953,
"[2.8, 2.8]",3,0,18,18,14,,,,,9,0,9,0,left,0.742124754936,OR,f,21,60.0107546239,Set,2017_12_20_1953,
"[2.8, 2.8]",3,0,18,18,14,,,,,10,0,10,0,left,0.342131149722,OR,f,21,60.0107546239,Set,2017_12_20_1953,
"[2.8, 2.8]",3,0,18,18,14,,,,,11,0,11,0,left,0.608803948038,OR,f,21,60.0107546239,Set,2017_12_20_1953,
"[2.8, 2.8]",3,0,18,18,14,,,,,12,0,12,0,left,0.85878243472,OR,f,21,60.0107546239,Set,2017_12_20_1953,
"[2.8, 2.8]",3,0,18,18,14,,,,,13,0,13,0,left,1.05875219766,OR,f,21,60.0107546239,Set,2017_12_20_1953,
"[2.8, 2.8]",3,0,18,18,14,,,,,14,0,14,0,down,1.39210592583,OR,f,21,60.0107546239,Set,2017_12_20_1953,
"[2.8, 2.8]",3,0,18,18,14,,,,,15,0,15,0,down,0.475526957191,OR,f,21,60.0107546239,Set,2017_12_20_1953,
"[2.6, 2.6]",1,0,19,19,0,,,,,0,0,0,0,left,1.94209964958,OR,f,21,60.0107546239,Set,2017_12_20_1953,
"[2.6, 2.6]",1,0,19,19,0,,,,,1,0,1,0,left,0.225442285649,OR,f,21,60.0107546239,Set,2017_12_20_1953,
"[2.6, 2.6]",1,0,19,19,0,,,,,2,0,2,0,left,0.34213391284,OR,f,21,60.0107546239,Set,2017_12_20_1953,
"[2.6, 2.6]",1,0,19,19,0,,,,,3,0,3,0,left,0.342171413125,OR,f,21,60.0107546239,Set,2017_12_20_1953,
"[2.6, 2.6]",1,0,19,19,0,,,,,4,0,4,0,left,0.858805724303,OR,f,21,60.0107546239,Set,2017_12_20_1953,
"[2.6, 2.6]",1,0,19,19,0,,,,,5,0,5,0,left,0.342224702938,OR,f,21,60.0107546239,Set,2017_12_20_1953,
"[2.6, 2.6]",1,0,19,19,0,,,,,6,0,6,0,left,0.358798224246,OR,f,21,60.0107546239,Set,2017_12_20_1953,
"[2.6, 2.6]",1,0,19,19,0,,,,,7,0,7,0,left,0.32547197002,OR,f,21,60.0107546239,Set,2017_12_20_1953,
"[2.6, 2.6]",1,0,19,19,0,,,,,8,0,8,0,left,0.225462022587,OR,f,21,60.0107546239,Set,2017_12_20_1953,
"[2.6, 2.6]",1,0,19,19,0,,,,,9,0,9,0,left,0.125454838271,OR,f,21,60.0107546239,Set,2017_12_20_1953,
"[2.6, 2.6]",1,0,19,19,0,,,,,10,0,10,0,left,0.175435140845,OR,f,21,60.0107546239,Set,2017_12_20_1953,
"[2.6, 2.6]",1,0,19,19,0,,,,,11,0,11,0,left,0.108786184806,OR,f,21,60.0107546239,Set,2017_12_20_1953,
"[2.6, 2.6]",1,0,19,19,0,,,,,12,0,12,0,left,0.0586831183173,OR,f,21,60.0107546239,Set,2017_12_20_1953,
"[2.6, 2.6]",1,0,19,19,0,,,,,13,0,13,0,left,0.0754662462277,OR,f,21,60.0107546239,Set,2017_12_20_1953,
"[2.6, 2.6]",1,0,19,19,0,,,,,14,0,14,0,left,0.0754330881173,OR,f,21,60.0107546239,Set,2017_12_20_1953,
"[2.6, 2.6]",1,0,19,19,0,,,,,15,0,15,0,left,0.000266843708232,OR,f,21,60.0107546239,Set,2017_12_20_1953,
"[2.6, 2.6]",1,0,19,19,0,,,,,16,0,16,0,left,0.700244106702,OR,f,21,60.0107546239,Set,2017_12_20_1953,
"[2.6, 2.6]",1,0,19,19,0,,,,,17,0,17,0,left,0.308793842676,OR,f,21,60.0107546239,Set,2017_12_20_1953,
"[2.6, 2.6]",1,0,19,19,0,,,,,18,0,18,0,left,0.0921175312251,OR,f,21,60.0107546239,Set,2017_12_20_1953,
"[2.6, 2.6]",1,0,19,19,0,,,,,19,0,19,0,left,0.0754603252281,OR,f,21,60.0107546239,Set,2017_12_20_1953,
"[2.6, 2.6]",1,0,19,19,0,,,,,20,0,20,0,left,0.241966464557,OR,f,21,60.0107546239,Set,2017_12_20_1953,
"[2.6, 2.6]",1,0,19,19,0,,,,,21,0,21,0,left,0.0755017726915,OR,f,21,60.0107546239,Set,2017_12_20_1953,
"[2.6, 2.6]",1,0,19,19,0,,,,,22,0,22,0,left,0.16690719442,OR,f,21,60.0107546239,Set,2017_12_20_1953,
"[2.6, 2.6]",1,0,19,19,0,,,,,23,0,23,0,left,0.0754634831101,OR,f,21,60.0107546239,Set,2017_12_20_1953,
"[2.6, 2.6]",1,0,19,19,0,,,,,24,0,24,0,left,0.192129847128,OR,f,21,60.0107546239,Set,2017_12_20_1953,
"[2.6, 2.6]",1,0,19,19,0,,,,,25,0,25,0,left,0.808788711089,OR,f,21,60.0107546239,Set,2017_12_20_1953,
"[2.6, 2.6]",1,0,19,19,0,,,,,26,0,26,0,left,1.39212921553,OR,f,21,60.0107546239,Set,2017_12_20_1953,
"[2.6, 2.6]",1,0,19,19,0,,,,,27,0,27,0,left,0.375466877827,OR,f,21,60.0107546239,Set,2017_12_20_1953,
"[2.6, 2.6]",1,0,19,19,0,,,,,28,0,28,0,down,1.60875500028,OR,f,21,60.0107546239,Set,2017_12_20_1953,
"[2.6, 2.6]",1,0,19,19,0,,,,,29,0,29,0,down,0.50878965843,OR,f,21,60.0107546239,Set,2017_12_20_1953,
"[2.6, 2.6]",1,0,19,19,0,,,,,30,0,30,0,left,0.475280639832,OR,f,21,60.0107546239,Set,2017_12_20_1953,
"[2.6, 2.6]",1,0,19,19,0,,,,,31,0,31,0,left,0.592126215459,OR,f,21,60.0107546239,Set,2017_12_20_1953,
"[2.6, 2.6]",1,0,19,19,0,,,,,32,0,32,0,left,0.342081412557,OR,f,21,60.0107546239,Set,2017_12_20_1953,
"[2.6, 2.6]",1,0,19,19,0,,,,,33,0,33,0,left,0.125453654095,OR,f,21,60.0107546239,Set,2017_12_20_1953,
"[2.6, 2.6]",1,0,19,19,0,,,,,34,0,34,0,left,0.158787803142,OR,f,21,60.0107546239,Set,2017_12_20_1953,
"[2.6, 2.6]",1,0,19,19,0,,,,,35,0,35,0,left,0.142121123383,OR,f,21,60.0107546239,Set,2017_12_20_1953,
"[2.6, 2.6]",1,0,19,19,0,,,,,36,0,36,0,left,0.125442996039,OR,f,21,60.0107546239,Set,2017_12_20_1953,
"[2.6, 2.6]",1,0,19,19,0,,,,,37,0,37,0,down,0.558737592306,OR,f,21,60.0107546239,Set,2017_12_20_1953,
"[2.6, 2.6]",1,0,19,19,0,,,,,38,0,38,0,left,0.208798895474,OR,f,21,60.0107546239,Set,2017_12_20_1953,
"[2.6, 2.6]",1,0,19,19,0,,,,,39,0,39,0,down,0.325451443554,OR,f,21,60.0107546239,Set,2017_12_20_1953,
"[2.6, 2.6]",1,0,19,19,0,,,,,40,0,40,0,down,0.325446311967,OR,f,21,60.0107546239,Set,2017_12_20_1953,
"[2.8, 2.8]",6,0,20,20,17,,,,,0,0,0,0,left,0.342139439308,OR,f,21,60.0107546239,Set,2017_12_20_1953,
"[2.8, 2.8]",6,0,20,20,17,,,,,1,0,1,0,right,0.375394245842,OR,f,21,60.0107546239,Set,2017_12_20_1953,
"[2.8, 2.8]",6,0,20,20,17,,,,,2,0,2,0,right,0.333485176321,OR,f,21,60.0107546239,Set,2017_12_20_1953,
"[2.8, 2.8]",6,0,20,20,17,,,,,3,0,3,0,right,0.27543600928,OR,f,21,60.0107546239,Set,2017_12_20_1953,
"[2.8, 2.8]",6,0,20,20,17,,,,,4,0,4,0,right,0.292138215504,OR,f,21,60.0107546239,Set,2017_12_20_1953,
"[2.8, 2.8]",6,0,20,20,17,,,,,5,0,5,0,left,0.458776197862,OR,f,21,60.0107546239,Set,2017_12_20_1953,
"[2.8, 2.8]",6,0,20,20,17,,,,,6,0,6,0,left,0.175448167138,OR,f,21,60.0107546239,Set,2017_12_20_1953,
"[2.8, 2.8]",6,0,20,20,17,,,,,7,0,7,0,left,0.492126136553,OR,f,21,60.0107546239,Set,2017_12_20_1953,
"[2.8, 2.8]",6,0,20,20,17,,,,,8,0,8,0,left,0.325434469734,OR,f,21,60.0107546239,Set,2017_12_20_1953,
"[2.8, 2.8]",6,0,20,20,17,,,,,9,0,9,0,left,0.342099965317,OR,f,21,60.0107546239,Set,2017_12_20_1953,
"[2.8, 2.8]",6,0,20,20,17,,,,,10,0,10,0,right,1.25878630322,OR,f,21,60.0107546239,Set,2017_12_20_1953,
"[2.8, 2.8]",6,0,20,20,17,,,,,11,0,11,0,left,0.24216067628,OR,f,21,60.0107546239,Set,2017_12_20_1953,
"[2.8, 2.8]",6,0,20,20,17,,,,,12,0,12,0,right,0.442138728802,OR,f,21,60.0107546239,Set,2017_12_20_1953,
"[2.8, 2.8]",6,0,20,20,17,,,,,13,0,13,0,left,0.875449114596,OR,f,21,60.0107546239,Set,2017_12_20_1953,
"[2.8, 2.8]",6,0,20,20,17,,,,,14,0,14,0,right,0.342118518078,OR,f,21,60.0107546239,Set,2017_12_20_1953,
"[2.8, 2.8]",6,0,20,20,17,,,,,15,0,15,0,down,0.708770079422,OR,f,21,60.0107546239,Set,2017_12_20_1953,
"[2.8, 2.8]",6,0,20,20,17,,,,,16,0,16,0,down,0.592110820697,OR,f,21,60.0107546239,Set,2017_12_20_1953,
"[2.9, 2.9]",3,0,21,21,20,,,,,0,0,0,0,left,0.566911852336,OR,f,21,60.0107546239,Set,2017_12_20_1953,
"[2.9, 2.9]",3,0,21,21,20,,,,,1,0,1,0,left,0.525464627775,OR,f,21,60.0107546239,Set,2017_12_20_1953,
"[2.9, 2.9]",3,0,21,21,20,,,,,2,0,2,0,left,0.158841882483,OR,f,21,60.0107546239,Set,2017_12_20_1953,
"[2.9, 2.9]",3,0,21,21,20,,,,,3,0,3,0,left,0.292139399797,OR,f,21,60.0107546239,Set,2017_12_20_1953,
"[2.9, 2.9]",3,0,21,21,20,,,,,4,0,4,0,left,0.158807145315,OR,f,21,60.0107546239,Set,2017_12_20_1953,
"[2.9, 2.9]",3,0,21,21,20,,,,,5,0,5,0,left,0.108784210985,OR,f,21,60.0107546239,Set,2017_12_20_1953,
"[2.9, 2.9]",3,0,21,21,20,,,,,6,0,6,0,left,0.12551168073,OR,f,21,60.0107546239,Set,2017_12_20_1953,
"[2.9, 2.9]",3,0,21,21,20,,,,,7,0,7,0,left,0.442005701596,OR,f,21,60.0107546239,Set,2017_12_20_1953,
"[2.9, 2.9]",3,0,21,21,20,,,,,8,0,8,0,left,0.425444417167,OR,f,21,60.0107546239,Set,2017_12_20_1953,
"[2.9, 2.9]",3,0,21,21,20,,,,,9,0,9,0,left,0.292132294504,OR,f,21,60.0107546239,Set,2017_12_20_1953,
"[2.9, 2.9]",3,0,21,21,20,,,,,10,0,10,0,right,0.292109004804,OR,f,21,60.0107546239,Set,2017_12_20_1953,
"[2.9, 2.9]",3,0,21,21,20,,,,,11,0,11,0,right,0.308770158328,OR,f,21,60.0107546239,Set,2017_12_20_1953,
"[2.9, 2.9]",3,0,21,21,20,,,,,12,0,12,0,left,0.492138373549,OR,f,21,60.0107546239,Set,2017_12_20_1953,
"[2.9, 2.9]",3,0,21,21,20,,,,,13,0,13,0,left,0.242118439171,OR,f,21,60.0107546239,Set,2017_12_20_1953,
"[2.9, 2.9]",3,0,21,21,20,,,,,14,0,14,0,left,0.675449746195,OR,f,21,60.0107546239,Set,2017_12_20_1953,
"[2.9, 2.9]",3,0,21,21,20,,,,,15,0,15,0,left,0.275448246161,OR,f,21,60.0107546239,Set,2017_12_20_1953,
"[2.9, 2.9]",3,0,21,21,20,,,,,16,0,16,0,left,0.225439127767,OR,f,21,60.0107546239,Set,2017_12_20_1953,
"[2.9, 2.9]",3,0,21,21,20,,,,,17,0,17,0,left,0.175480141072,OR,f,21,60.0107546239,Set,2017_12_20_1953,
"[2.9, 2.9]",3,0,21,21,20,,,,,18,0,18,0,left,0.125473785796,OR,f,21,60.0107546239,Set,2017_12_20_1953,
"[2.9, 2.9]",3,0,21,21,20,,,,,19,0,19,0,left,0.125471417326,OR,f,21,60.0107546239,Set,2017_12_20_1953,
"[2.9, 2.9]",3,0,21,21,20,,,,,20,0,20,0,left,0.108797632158,OR,f,21,60.0107546239,Set,2017_12_20_1953,
"[2.9, 2.9]",3,0,21,21,20,,,,,21,0,21,0,left,0.192128662835,OR,f,21,60.0107546239,Set,2017_12_20_1953,
"[2.9, 2.9]",3,0,21,21,20,,,,,22,0,22,0,left,0.208779553184,OR,f,21,60.0107546239,Set,2017_12_20_1953,
"[2.9, 2.9]",3,0,21,21,20,,,,,23,0,23,0,left,0.208809553296,OR,f,21,60.0107546239,Set,2017_12_20_1953,
"[2.9, 2.9]",3,0,21,21,20,,,,,24,0,24,0,left,0.308788711089,OR,f,21,60.0107546239,Set,2017_12_20_1953,
"[2.9, 2.9]",3,0,21,21,20,,,,,25,0,25,0,left,0.142116386443,OR,f,21,60.0107546239,Set,2017_12_20_1953,
"[2.9, 2.9]",3,0,21,21,20,,,,,26,0,26,0,left,0.0921325313393,OR,f,21,60.0107546239,Set,2017_12_20_1953,
"[2.9, 2.9]",3,0,21,21,20,,,,,27,0,27,0,left,0.125452075154,OR,f,21,60.0107546239,Set,2017_12_20_1953,
"[2.9, 2.9]",3,0,21,21,20,,,,,28,0,28,0,left,0.225465575233,OR,f,21,60.0107546239,Set,2017_12_20_1953,
"[2.9, 2.9]",3,0,21,21,20,,,,,29,0,29,0,left,0.125485627912,OR,f,21,60.0107546239,Set,2017_12_20_1953,
"[2.9, 2.9]",3,0,21,21,20,,,,,30,0,30,0,left,0.275472719921,OR,f,21,60.0107546239,Set,2017_12_20_1953,
"[2.9, 2.9]",3,0,21,21,20,,,,,31,0,31,0,left,0.175456851488,OR,f,21,60.0107546239,Set,2017_12_20_1953,
"[2.9, 2.9]",3,0,21,21,20,,,,,32,0,32,0,left,0.208844685112,OR,f,21,60.0107546239,Set,2017_12_20_1953,
"[2.9, 2.9]",3,0,21,21,20,,,,,33,0,33,0,left,0.142075728392,OR,f,21,60.0107546239,Set,2017_12_20_1953,
"[2.9, 2.9]",3,0,21,21,20,,,,,34,0,34,0,left,0.142081649508,OR,f,21,60.0107546239,Set,2017_12_20_1953,
"[2.9, 2.9]",3,0,21,21,20,,,,,35,0,35,0,left,0.108888422255,OR,f,21,60.0107546239,Set,2017_12_20_1953,
"[2.9, 2.9]",3,0,21,21,20,,,,,36,0,36,0,left,0.0587948295288,OR,f,21,60.0107546239,Set,2017_12_20_1953,
"[2.9, 2.9]",3,0,21,21,20,,,,,37,0,37,0,left,0.225276495097,OR,f,21,60.0107546239,Set,2017_12_20_1953,
"[2.9, 2.9]",3,0,21,21,20,,,,,38,0,38,0,left,0.0421617026441,OR,f,21,60.0107546239,Set,2017_12_20_1953,
"[2.9, 2.9]",3,0,21,21,20,,,,,39,0,39,0,left,0.0587912768824,OR,f,21,60.0107546239,Set,2017_12_20_1953,
"[2.9, 2.9]",3,0,21,21,20,,,,,40,0,40,0,left,0.000249080476351,OR,f,21,60.0107546239,Set,2017_12_20_1953,
"[2.9, 2.9]",3,0,21,21,20,,,,,41,0,41,0,left,0.0169129971182,OR,f,21,60.0107546239,Set,2017_12_20_1953,
"[2.9, 2.9]",3,0,21,21,20,,,,,42,0,42,0,left,0.208788237418,OR,f,21,60.0107546239,Set,2017_12_20_1953,
"[2.9, 2.9]",3,0,21,21,20,,,,,43,0,43,0,left,0.158798066317,OR,f,21,60.0107546239,Set,2017_12_20_1953,
"[2.9, 2.9]",3,0,21,21,20,,,,,44,0,44,0,left,0.35877177678,OR,f,21,60.0107546239,Set,2017_12_20_1953,
"[2.9, 2.9]",3,0,21,21,20,,,,,45,0,45,0,left,0.258748408174,OR,f,21,60.0107546239,Set,2017_12_20_1953,
"[2.9, 2.9]",3,0,21,21,20,,,,,46,0,46,0,down,0.42546020681,OR,f,21,60.0107546239,Set,2017_12_20_1953,
"[2.9, 2.9]",3,0,21,21,20,,,,,47,0,47,0,down,0.150431568502,OR,f,21,60.0107546239,Set,2017_12_20_1953,
"[2.9, 2.9]",5,0,22,22,22,,,,,0,0,0,0,right,1.1421148075,OR,f,21,60.0107546239,Set,2017_12_20_1953,
"[2.9, 2.9]",5,0,22,22,22,,,,,1,0,1,0,left,0.242136202403,OR,f,21,60.0107546239,Set,2017_12_20_1953,
"[2.9, 2.9]",5,0,22,22,22,,,,,2,0,2,0,right,0.142128228676,OR,f,21,60.0107546239,Set,2017_12_20_1953,
"[2.9, 2.9]",5,0,22,22,22,,,,,3,0,3,0,right,0.342134702369,OR,f,21,60.0107546239,Set,2017_12_20_1953,
"[2.9, 2.9]",5,0,22,22,22,,,,,4,0,4,0,right,0.158796487376,OR,f,21,60.0107546239,Set,2017_12_20_1953,
"[2.9, 2.9]",5,0,22,22,22,,,,,5,0,5,0,right,0.108828421915,OR,f,21,60.0107546239,Set,2017_12_20_1953,
"[2.9, 2.9]",5,0,22,22,22,,,,,6,0,6,0,left,0.358789145364,OR,f,21,60.0107546239,Set,2017_12_20_1953,
"[2.9, 2.9]",5,0,22,22,22,,,,,7,0,7,0,right,0.192127478658,OR,f,21,60.0107546239,Set,2017_12_20_1953,
"[2.9, 2.9]",5,0,22,22,22,,,,,8,0,8,0,right,0.358777697897,OR,f,21,60.0107546239,Set,2017_12_20_1953,
"[2.9, 2.9]",5,0,22,22,22,,,,,9,0,9,0,left,0.325455390965,OR,f,21,60.0107546239,Set,2017_12_20_1953,
"[2.9, 2.9]",5,0,22,22,22,,,,,10,0,10,0,left,0.242082912591,OR,f,21,60.0107546239,Set,2017_12_20_1953,
"[2.9, 2.9]",5,0,22,22,22,,,,,11,0,11,0,left,0.225440311944,OR,f,21,60.0107546239,Set,2017_12_20_1953,
"[2.9, 2.9]",5,0,22,22,22,,,,,12,0,12,0,left,0.142125465441,OR,f,21,60.0107546239,Set,2017_12_20_1953,
"[2.9, 2.9]",5,0,22,22,22,,,,,13,0,13,0,down,0.508763210964,OR,f,21,60.0107546239,Set,2017_12_20_1953,
"[2.9, 2.9]",5,0,22,22,22,,,,,14,0,14,0,left,0.242148834048,OR,f,21,60.0107546239,Set,2017_12_20_1953,
"[2.9, 2.9]",5,0,22,22,22,,,,,15,0,15,0,down,0.858776513604,OR,f,21,60.0107546239,Set,2017_12_20_1953,
"[2.9, 2.9]",5,0,22,22,22,,,,,16,0,16,0,left,0.158809119137,OR,f,21,60.0107546239,Set,2017_12_20_1953,
"[2.9, 2.9]",5,0,22,22,22,,,,,17,0,17,0,down,0.375461351476,OR,f,21,60.0107546239,Set,2017_12_20_1953,
"[2.9, 2.9]",5,0,22,22,22,,,,,18,0,18,0,down,0.358760329429,OR,f,21,60.0107546239,Set,2017_12_20_1953,
"[2.6, 2.6]",5,0,23,23,4,,,,,0,0,0,0,left,0.491972977761,OR,f,21,60.0107546239,Set,2017_12_20_1953,
"[2.6, 2.6]",5,0,23,23,4,,,,,1,0,1,0,down,0.425450732931,OR,f,21,60.0107546239,Set,2017_12_20_1953,
"[2.6, 2.6]",5,0,23,23,4,,,,,2,0,2,0,down,0.342120097019,OR,f,21,60.0107546239,Set,2017_12_20_1953,
"[2.8, 2.8]",5,0,24,24,16,,,,,0,0,0,0,down,0.492142715608,OR,f,21,60.0107546239,Set,2017_12_20_1953,
"[2.8, 2.8]",5,0,24,24,16,,,,,1,0,1,0,left,0.342164307833,OR,f,21,60.0107546239,Set,2017_12_20_1953,
"[2.8, 2.8]",5,0,24,24,16,,,,,2,0,2,0,left,0.442132018157,OR,f,21,60.0107546239,Set,2017_12_20_1953,
"[2.8, 2.8]",5,0,24,24,16,,,,,3,0,3,0,down,0.425491391215,OR,f,21,60.0107546239,Set,2017_12_20_1953,
"[2.8, 2.8]",5,0,24,24,16,,,,,4,0,4,0,left,0.17545369349,OR,f,21,60.0107546239,Set,2017_12_20_1953,
"[2.8, 2.8]",5,0,24,24,16,,,,,5,0,5,0,left,0.242143307813,OR,f,21,60.0107546239,Set,2017_12_20_1953,
"[2.8, 2.8]",5,0,24,24,16,,,,,6,0,6,0,left,0.125422864337,OR,f,21,60.0107546239,Set,2017_12_20_1953,
"[2.8, 2.8]",5,0,24,24,16,,,,,7,0,7,0,left,0.158790171612,OR,f,21,60.0107546239,Set,2017_12_20_1953,
"[2.8, 2.8]",5,0,24,24,16,,,,,8,0,8,0,left,0.475414061802,OR,f,21,60.0107546239,Set,2017_12_20_1953,
"[2.8, 2.8]",5,0,24,24,16,,,,,9,0,9,0,left,0.275449035573,OR,f,21,60.0107546239,Set,2017_12_20_1953,
"[2.8, 2.8]",5,0,24,24,16,,,,,10,0,10,0,left,0.12547023315,OR,f,21,60.0107546239,Set,2017_12_20_1953,
"[2.8, 2.8]",5,0,24,24,16,,,,,11,0,11,0,left,0.225500312285,OR,f,21,60.0107546239,Set,2017_12_20_1953,
"[2.8, 2.8]",5,0,24,24,16,,,,,12,0,12,0,left,0.325456180377,OR,f,21,60.0107546239,Set,2017_12_20_1953,
"[2.8, 2.8]",5,0,24,24,16,,,,,13,0,13,0,left,0.22544978559,OR,f,21,60.0107546239,Set,2017_12_20_1953,
"[2.8, 2.8]",5,0,24,24,16,,,,,14,0,14,0,left,0.575450456701,OR,f,21,60.0107546239,Set,2017_12_20_1953,
"[2.8, 2.8]",5,0,24,24,16,,,,,15,0,15,0,left,0.225468733115,OR,f,21,60.0107546239,Set,2017_12_20_1953,
"[2.8, 2.8]",5,0,24,24,16,,,,,16,0,16,0,left,0.108783816337,OR,f,21,60.0107546239,Set,2017_12_20_1953,
"[2.8, 2.8]",5,0,24,24,16,,,,,17,0,17,0,left,0.0754461145261,OR,f,21,60.0107546239,Set,2017_12_20_1953,
"[2.8, 2.8]",5,0,24,24,16,,,,,18,0,18,0,down,0.108770789928,OR,f,21,60.0107546239,Set,2017_12_20_1953,
"[2.8, 2.8]",5,0,24,24,16,,,,,19,0,19,0,left,0.808778842562,OR,f,21,60.0107546239,Set,2017_12_20_1953,
"[2.8, 2.8]",5,0,24,24,16,,,,,20,0,20,0,down,0.125474575209,OR,f,21,60.0107546239,Set,2017_12_20_1953,
"[2.8, 2.8]",5,0,24,24,16,,,,,21,0,21,0,left,0.108887237962,OR,f,21,60.0107546239,Set,2017_12_20_1953,
"[2.8, 2.8]",5,0,24,24,16,,,,,22,0,22,0,left,0.142158623552,OR,f,21,60.0107546239,Set,2017_12_20_1953,
"[2.8, 2.8]",5,0,24,24,16,,,,,23,0,23,0,left,0.0419303853996,OR,f,21,60.0107546239,Set,2017_12_20_1953,
"[2.8, 2.8]",5,0,24,24,16,,,,,24,0,24,0,left,0.0421502550598,OR,f,21,60.0107546239,Set,2017_12_20_1953,
"[2.8, 2.8]",5,0,24,24,16,,,,,25,0,25,0,left,0.025563312578,OR,f,21,60.0107546239,Set,2017_12_20_1953,
"[2.8, 2.8]",5,0,24,24,16,,,,,26,0,26,0,left,0.000248290947638,OR,f,21,60.0107546239,Set,2017_12_20_1953,
"[2.8, 2.8]",5,0,24,24,16,,,,,27,0,27,0,left,0.100228238269,OR,f,21,60.0107546239,Set,2017_12_20_1953,
"[2.8, 2.8]",5,0,24,24,16,,,,,28,0,28,0,left,0.242115281173,OR,f,21,60.0107546239,Set,2017_12_20_1953,
"[2.8, 2.8]",5,0,24,24,16,,,,,29,0,29,0,left,0.125456022564,OR,f,21,60.0107546239,Set,2017_12_20_1953,
"[2.8, 2.8]",5,0,24,24,16,,,,,30,0,30,0,left,0.0754583514063,OR,f,21,60.0107546239,Set,2017_12_20_1953,
"[2.8, 2.8]",5,0,24,24,16,,,,,31,0,31,0,left,0.0755005886313,OR,f,21,60.0107546239,Set,2017_12_20_1953,
"[2.8, 2.8]",5,0,24,24,16,,,,,32,0,32,0,right,0.842109044432,OR,f,21,60.0107546239,Set,2017_12_20_1953,
"[2.8, 2.8]",5,0,24,24,16,,,,,33,0,33,0,down,0.442140307627,OR,f,21,60.0107546239,Set,2017_12_20_1953,
"[2.8, 2.8]",5,0,24,24,16,,,,,34,0,34,0,down,0.475294060889,OR,f,21,60.0107546239,Set,2017_12_20_1953,
"[2.7, 2.7]",6,0,25,25,11,,,,,0,0,0,0,down,0.808783184737,OR,f,21,60.0107546239,Set,2017_12_20_1953,
"[2.7, 2.7]",6,0,25,25,11,,,,,1,0,1,0,down,0.408634841791,OR,f,21,60.0107546239,Set,2017_12_20_1953,
"[2.6, 2.6]",2,0,26,26,1,,,,,0,0,0,0,down,0.550230961991,OR,f,21,60.0107546239,Set,2017_12_20_1953,
"[2.6, 2.6]",2,0,26,26,1,,,,,1,0,1,0,right,0.225488075288,OR,f,21,60.0107546239,Set,2017_12_20_1953,
"[2.6, 2.6]",2,0,26,26,1,,,,,2,0,2,0,right,0.392128031352,OR,f,21,60.0107546239,Set,2017_12_20_1953,
"[2.6, 2.6]",2,0,26,26,1,,,,,3,0,3,0,down,0.692128268071,OR,f,21,60.0107546239,Set,2017_12_20_1953,
"[2.6, 2.6]",2,0,26,26,1,,,,,4,0,4,0,down,0.275477062096,OR,f,21,60.0107546239,Set,2017_12_20_1953,
"[3.0, 3.0]",4,0,27,27,27,,,,,0,0,0,0,left,0.475448009209,OR,f,21,60.0107546239,Set,2017_12_20_1953,
"[3.0, 3.0]",4,0,27,27,27,,,,,1,0,1,0,left,0.375465298886,OR,f,21,60.0107546239,Set,2017_12_20_1953,
"[3.0, 3.0]",4,0,27,27,27,,,,,2,0,2,0,right,0.725469917292,OR,f,21,60.0107546239,Set,2017_12_20_1953,
"[3.0, 3.0]",4,0,27,27,27,,,,,3,0,3,0,left,0.191957346047,OR,f,21,60.0107546239,Set,2017_12_20_1953,
"[3.0, 3.0]",4,0,27,27,27,,,,,4,0,4,0,down,0.658799645375,OR,f,21,60.0107546239,Set,2017_12_20_1953,
"[3.0, 3.0]",4,0,27,27,27,,,,,5,0,5,0,left,0.258886172203,OR,f,21,60.0107546239,Set,2017_12_20_1953,
"[3.0, 3.0]",4,0,27,27,27,,,,,6,0,6,0,left,0.308781211032,OR,f,21,60.0107546239,Set,2017_12_20_1953,
"[3.0, 3.0]",4,0,27,27,27,,,,,7,0,7,0,left,0.275460877805,OR,f,21,60.0107546239,Set,2017_12_20_1953,
"[3.0, 3.0]",4,0,27,27,27,,,,,8,0,8,0,left,0.292127952329,OR,f,21,60.0107546239,Set,2017_12_20_1953,
"[3.0, 3.0]",4,0,27,27,27,,,,,9,0,9,0,left,0.258778013638,OR,f,21,60.0107546239,Set,2017_12_20_1953,
"[3.0, 3.0]",4,0,27,27,27,,,,,10,0,10,0,left,0.275453377748,OR,f,21,60.0107546239,Set,2017_12_20_1953,
"[3.0, 3.0]",4,0,27,27,27,,,,,11,0,11,0,left,0.17545014096,OR,f,21,60.0107546239,Set,2017_12_20_1953,
"[3.0, 3.0]",4,0,27,27,27,,,,,12,0,12,0,left,0.39212368906,OR,f,21,60.0107546239,Set,2017_12_20_1953,
"[3.0, 3.0]",4,0,27,27,27,,,,,13,0,13,0,left,0.325505917543,OR,f,21,60.0107546239,Set,2017_12_20_1953,
"[3.0, 3.0]",4,0,27,27,27,,,,,14,0,14,0,left,0.158803592785,OR,f,21,60.0107546239,Set,2017_12_20_1953,
"[3.0, 3.0]",4,0,27,27,27,,,,,15,0,15,0,down,0.392113425885,OR,f,21,60.0107546239,Set,2017_12_20_1953,
"[3.0, 3.0]",4,0,27,27,27,,,,,16,0,16,0,left,0.175460404018,OR,f,21,60.0107546239,Set,2017_12_20_1953,
"[3.0, 3.0]",4,0,27,27,27,,,,,17,0,17,0,down,0.258834461332,OR,f,21,60.0107546239,Set,2017_12_20_1953,
"[3.0, 3.0]",4,0,27,27,27,,,,,18,0,18,0,down,0.158775961027,OR,f,21,60.0107546239,Set,2017_12_20_1953,
"[2.9, 2.9]",2,0,28,28,19,,,,,0,0,0,0,down,3.40877773729,OR,f,21,60.0107546239,Set,2017_12_20_1953,
"[2.9, 2.9]",2,0,28,28,19,,,,,1,0,1,0,down,0.275463640923,OR,f,21,60.0107546239,Set,2017_12_20_1953,
"[3.0, 3.0]",6,0,29,29,29,,,,,0,0,0,0,right,1.55021793558,OR,f,21,60.0107546239,Set,2017_12_20_1953,
"[3.0, 3.0]",6,0,29,29,29,,,,,1,0,1,0,left,0.975436956622,OR,f,21,60.0107546239,Set,2017_12_20_1953,
"[3.0, 3.0]",6,0,29,29,29,,,,,2,0,2,0,left,0.192117215483,OR,f,21,60.0107546239,Set,2017_12_20_1953,
"[3.0, 3.0]",6,0,29,29,29,,,,,3,0,3,0,left,0.242172518396,OR,f,21,60.0107546239,Set,2017_12_20_1953,
"[3.0, 3.0]",6,0,29,29,29,,,,,4,0,4,0,left,0.192125110188,OR,f,21,60.0107546239,Set,2017_12_20_1953,
"[3.0, 3.0]",6,0,29,29,29,,,,,5,0,5,0,down,0.358833750826,OR,f,21,60.0107546239,Set,2017_12_20_1953,
"[3.0, 3.0]",6,0,29,29,29,,,,,6,0,6,0,left,0.558797592763,OR,f,21,60.0107546239,Set,2017_12_20_1953,
"[3.0, 3.0]",6,0,29,29,29,,,,,7,0,7,0,down,0.442118991748,OR,f,21,60.0107546239,Set,2017_12_20_1953,
"[3.0, 3.0]",6,0,29,29,29,,,,,8,0,8,0,left,0.158784250496,OR,f,21,60.0107546239,Set,2017_12_20_1953,
"[3.0, 3.0]",6,0,29,29,29,,,,,9,0,9,0,down,0.325450654142,OR,f,21,60.0107546239,Set,2017_12_20_1953,
"[3.0, 3.0]",6,0,29,29,29,,,,,10,0,10,0,down,0.425471259397,OR,f,21,60.0107546239,Set,2017_12_20_1953,
