size,n,trials_2.thisRepN,trials_2.thisTrialN,trials_2.thisN,trials_2.thisIndex,trials.thisRepN,trials.thisTrialN,trials.thisN,trials.thisIndex,trials_3.thisRepN,trials_3.thisTrialN,trials_3.thisN,trials_3.thisIndex,answer.keys,answer.rt,participant,gender,age,frameRate,expName,date,
"[2.7, 2.7]",1,0,0,0,6,,,,,0,0,0,0,down,6.27547035157,PIAs,m,24,60.0131714195,Set,2017_12_21_1705,
"[2.7, 2.7]",1,0,0,0,6,,,,,1,0,1,0,right,4.5087861059,PIAs,m,24,60.0131714195,Set,2017_12_21_1705,
"[2.7, 2.7]",1,0,0,0,6,,,,,2,0,2,0,down,0.842108649667,PIAs,m,24,60.0131714195,Set,2017_12_21_1705,
"[2.7, 2.7]",1,0,0,0,6,,,,,3,0,3,0,down,0.358792697894,PIAs,m,24,60.0131714195,Set,2017_12_21_1705,
"[2.9, 2.9]",5,0,1,1,22,,,,,0,0,0,0,left,4.00875926355,PIAs,m,24,60.0131714195,Set,2017_12_21_1705,
"[2.9, 2.9]",5,0,1,1,22,,,,,1,0,1,0,down,2.05878140847,PIAs,m,24,60.0131714195,Set,2017_12_21_1705,
"[2.9, 2.9]",5,0,1,1,22,,,,,2,0,2,0,down,1.69195655663,PIAs,m,24,60.0131714195,Set,2017_12_21_1705,
"[2.9, 2.9]",5,0,1,1,22,,,,,3,0,3,0,left,2.24211764964,PIAs,m,24,60.0131714195,Set,2017_12_21_1705,
"[2.9, 2.9]",5,0,1,1,22,,,,,4,0,4,0,left,0.742222255445,PIAs,m,24,60.0131714195,Set,2017_12_21_1705,
"[2.9, 2.9]",5,0,1,1,22,,,,,5,0,5,0,left,0.642117175972,PIAs,m,24,60.0131714195,Set,2017_12_21_1705,
"[2.9, 2.9]",5,0,1,1,22,,,,,6,0,6,0,left,4.14208322845,PIAs,m,24,60.0131714195,Set,2017_12_21_1705,
"[2.9, 2.9]",5,0,1,1,22,,,,,7,0,7,0,down,0.625459575211,PIAs,m,24,60.0131714195,Set,2017_12_21_1705,
"[2.9, 2.9]",5,0,1,1,22,,,,,8,0,8,0,down,1.22546715417,PIAs,m,24,60.0131714195,Set,2017_12_21_1705,
"[2.6, 2.6]",1,0,2,2,0,,,,,0,0,0,0,down,2.75017506687,PIAs,m,24,60.0131714195,Set,2017_12_21_1705,
"[2.6, 2.6]",1,0,2,2,0,,,,,1,0,1,0,down,0.708789421595,PIAs,m,24,60.0131714195,Set,2017_12_21_1705,
"[3.0, 3.0]",5,0,3,3,28,,,,,0,0,0,0,down,0.800224843435,PIAs,m,24,60.0131714195,Set,2017_12_21_1705,
"[3.0, 3.0]",5,0,3,3,28,,,,,1,0,1,0,down,0.675437903963,PIAs,m,24,60.0131714195,Set,2017_12_21_1705,
"[2.8, 2.8]",4,0,4,4,15,,,,,0,0,0,0,left,2.87548661476,PIAs,m,24,60.0131714195,Set,2017_12_21_1705,
"[2.8, 2.8]",4,0,4,4,15,,,,,1,0,1,0,down,1.17548961483,PIAs,m,24,60.0131714195,Set,2017_12_21_1705,
"[2.8, 2.8]",4,0,4,4,15,,,,,2,0,2,0,down,0.642125465441,PIAs,m,24,60.0131714195,Set,2017_12_21_1705,
"[2.8, 2.8]",1,0,5,5,12,,,,,0,0,0,0,down,2.48354805831,PIAs,m,24,60.0131714195,Set,2017_12_21_1705,
"[2.8, 2.8]",1,0,5,5,12,,,,,1,0,1,0,down,0.858779671486,PIAs,m,24,60.0131714195,Set,2017_12_21_1705,
"[2.7, 2.7]",3,0,6,6,8,,,,,0,0,0,0,down,2.25878511893,PIAs,m,24,60.0131714195,Set,2017_12_21_1705,
"[2.7, 2.7]",3,0,6,6,8,,,,,1,0,1,0,down,0.55887969851,PIAs,m,24,60.0131714195,Set,2017_12_21_1705,
"[3.0, 3.0]",1,0,7,7,24,,,,,0,0,0,0,left,0.675465535722,PIAs,m,24,60.0131714195,Set,2017_12_21_1705,
"[3.0, 3.0]",1,0,7,7,24,,,,,1,0,1,0,down,0.875459772535,PIAs,m,24,60.0131714195,Set,2017_12_21_1705,
"[3.0, 3.0]",1,0,7,7,24,,,,,2,0,2,0,left,0.725483733229,PIAs,m,24,60.0131714195,Set,2017_12_21_1705,
"[3.0, 3.0]",1,0,7,7,24,,,,,3,0,3,0,down,0.658835566603,PIAs,m,24,60.0131714195,Set,2017_12_21_1705,
"[3.0, 3.0]",1,0,7,7,24,,,,,4,0,4,0,down,0.692121162778,PIAs,m,24,60.0131714195,Set,2017_12_21_1705,
"[2.9, 2.9]",1,0,8,8,18,,,,,0,0,0,0,down,0.792113741743,PIAs,m,24,60.0131714195,Set,2017_12_21_1705,
"[2.9, 2.9]",1,0,8,8,18,,,,,1,0,1,0,down,1.04212499189,PIAs,m,24,60.0131714195,Set,2017_12_21_1705,
"[2.8, 2.8]",6,0,9,9,17,,,,,0,0,0,0,left,1.40022886975,PIAs,m,24,60.0131714195,Set,2017_12_21_1705,
"[2.8, 2.8]",6,0,9,9,17,,,,,1,0,1,0,down,0.558778250474,PIAs,m,24,60.0131714195,Set,2017_12_21_1705,
"[2.8, 2.8]",6,0,9,9,17,,,,,2,0,2,0,left,0.592107662698,PIAs,m,24,60.0131714195,Set,2017_12_21_1705,
"[2.8, 2.8]",6,0,9,9,17,,,,,3,0,3,0,down,0.458806592855,PIAs,m,24,60.0131714195,Set,2017_12_21_1705,
"[2.8, 2.8]",6,0,9,9,17,,,,,4,0,4,0,left,1.17528592935,PIAs,m,24,60.0131714195,Set,2017_12_21_1705,
"[2.8, 2.8]",6,0,9,9,17,,,,,5,0,5,0,left,0.508803079603,PIAs,m,24,60.0131714195,Set,2017_12_21_1705,
"[2.8, 2.8]",6,0,9,9,17,,,,,6,0,6,0,down,0.358801777009,PIAs,m,24,60.0131714195,Set,2017_12_21_1705,
"[2.8, 2.8]",6,0,9,9,17,,,,,7,0,7,0,down,0.358769803075,PIAs,m,24,60.0131714195,Set,2017_12_21_1705,
"[2.8, 2.8]",6,0,9,9,17,,,,,8,0,8,0,left,0.525446075015,PIAs,m,24,60.0131714195,Set,2017_12_21_1705,
"[2.8, 2.8]",6,0,9,9,17,,,,,9,0,9,0,left,1.32544828567,PIAs,m,24,60.0131714195,Set,2017_12_21_1705,
"[2.8, 2.8]",6,0,9,9,17,,,,,10,0,10,0,down,0.392202637042,PIAs,m,24,60.0131714195,Set,2017_12_21_1705,
"[2.8, 2.8]",6,0,9,9,17,,,,,11,0,11,0,left,0.392111846944,PIAs,m,24,60.0131714195,Set,2017_12_21_1705,
"[2.8, 2.8]",6,0,9,9,17,,,,,12,0,12,0,down,0.392107899534,PIAs,m,24,60.0131714195,Set,2017_12_21_1705,
"[2.8, 2.8]",6,0,9,9,17,,,,,13,0,13,0,down,0.475464193616,PIAs,m,24,60.0131714195,Set,2017_12_21_1705,
"[2.6, 2.6]",3,0,10,10,2,,,,,0,0,0,0,down,0.566920141922,PIAs,m,24,60.0131714195,Set,2017_12_21_1705,
"[2.6, 2.6]",3,0,10,10,2,,,,,1,0,1,0,down,0.8087867375,PIAs,m,24,60.0131714195,Set,2017_12_21_1705,
"[2.9, 2.9]",2,0,11,11,19,,,,,0,0,0,0,left,0.53358283476,PIAs,m,24,60.0131714195,Set,2017_12_21_1705,
"[2.9, 2.9]",2,0,11,11,19,,,,,1,0,1,0,left,0.658787408378,PIAs,m,24,60.0131714195,Set,2017_12_21_1705,
"[2.9, 2.9]",2,0,11,11,19,,,,,2,0,2,0,left,2.00886268518,PIAs,m,24,60.0131714195,Set,2017_12_21_1705,
"[2.9, 2.9]",2,0,11,11,19,,,,,3,0,3,0,down,0.892122110236,PIAs,m,24,60.0131714195,Set,2017_12_21_1705,
"[2.9, 2.9]",2,0,11,11,19,,,,,4,0,4,0,down,0.625465890975,PIAs,m,24,60.0131714195,Set,2017_12_21_1705,
"[3.0, 3.0]",4,0,12,12,27,,,,,0,0,0,0,left,1.22546083829,PIAs,m,24,60.0131714195,Set,2017_12_21_1705,
"[3.0, 3.0]",4,0,12,12,27,,,,,1,0,1,0,left,0.692113268073,PIAs,m,24,60.0131714195,Set,2017_12_21_1705,
"[3.0, 3.0]",4,0,12,12,27,,,,,2,0,2,0,left,2.5087829479,PIAs,m,24,60.0131714195,Set,2017_12_21_1705,
"[3.0, 3.0]",4,0,12,12,27,,,,,3,0,3,0,left,0.692107741721,PIAs,m,24,60.0131714195,Set,2017_12_21_1705,
"[3.0, 3.0]",4,0,12,12,27,,,,,4,0,4,0,left,1.9587868558,PIAs,m,24,60.0131714195,Set,2017_12_21_1705,
"[3.0, 3.0]",4,0,12,12,27,,,,,5,0,5,0,right,0.542128149769,PIAs,m,24,60.0131714195,Set,2017_12_21_1705,
"[3.0, 3.0]",4,0,12,12,27,,,,,6,0,6,0,down,1.07544177247,PIAs,m,24,60.0131714195,Set,2017_12_21_1705,
"[3.0, 3.0]",4,0,12,12,27,,,,,7,0,7,0,left,4.02543699613,PIAs,m,24,60.0131714195,Set,2017_12_21_1705,
"[3.0, 3.0]",4,0,12,12,27,,,,,8,0,8,0,left,0.625463127857,PIAs,m,24,60.0131714195,Set,2017_12_21_1705,
"[3.0, 3.0]",4,0,12,12,27,,,,,9,0,9,0,left,0.308799369028,PIAs,m,24,60.0131714195,Set,2017_12_21_1705,
"[3.0, 3.0]",4,0,12,12,27,,,,,10,0,10,0,left,0.47544129868,PIAs,m,24,60.0131714195,Set,2017_12_21_1705,
"[3.0, 3.0]",4,0,12,12,27,,,,,11,0,11,0,left,1.30878634262,PIAs,m,24,60.0131714195,Set,2017_12_21_1705,
"[3.0, 3.0]",4,0,12,12,27,,,,,12,0,12,0,left,0.375477930531,PIAs,m,24,60.0131714195,Set,2017_12_21_1705,
"[3.0, 3.0]",4,0,12,12,27,,,,,13,0,13,0,down,0.592140426161,PIAs,m,24,60.0131714195,Set,2017_12_21_1705,
"[3.0, 3.0]",4,0,12,12,27,,,,,14,0,14,0,down,0.425442048814,PIAs,m,24,60.0131714195,Set,2017_12_21_1705,
"[2.8, 2.8]",3,0,13,13,14,,,,,0,0,0,0,left,0.600242448854,PIAs,m,24,60.0131714195,Set,2017_12_21_1705,
"[2.8, 2.8]",3,0,13,13,14,,,,,1,0,1,0,down,0.492132452317,PIAs,m,24,60.0131714195,Set,2017_12_21_1705,
"[2.8, 2.8]",3,0,13,13,14,,,,,2,0,2,0,down,0.292125189211,PIAs,m,24,60.0131714195,Set,2017_12_21_1705,
"[2.7, 2.7]",4,0,14,14,9,,,,,0,0,0,0,down,0.650234593544,PIAs,m,24,60.0131714195,Set,2017_12_21_1705,
"[2.7, 2.7]",4,0,14,14,9,,,,,1,0,1,0,down,0.375449114479,PIAs,m,24,60.0131714195,Set,2017_12_21_1705,
"[2.7, 2.7]",6,0,15,15,11,,,,,0,0,0,0,down,0.416893181275,PIAs,m,24,60.0131714195,Set,2017_12_21_1705,
"[2.7, 2.7]",6,0,15,15,11,,,,,1,0,1,0,down,2.22543912765,PIAs,m,24,60.0131714195,Set,2017_12_21_1705,
"[2.7, 2.7]",5,0,16,16,10,,,,,0,0,0,0,down,0.608811447979,PIAs,m,24,60.0131714195,Set,2017_12_21_1705,
"[2.7, 2.7]",5,0,16,16,10,,,,,1,0,1,0,left,5.37539779837,PIAs,m,24,60.0131714195,Set,2017_12_21_1705,
"[2.7, 2.7]",5,0,16,16,10,,,,,2,0,2,0,down,2.09210213635,PIAs,m,24,60.0131714195,Set,2017_12_21_1705,
"[2.7, 2.7]",5,0,16,16,10,,,,,3,0,3,0,left,3.35878006637,PIAs,m,24,60.0131714195,Set,2017_12_21_1705,
"[2.7, 2.7]",5,0,16,16,10,,,,,4,0,4,0,down,0.725439917063,PIAs,m,24,60.0131714195,Set,2017_12_21_1705,
"[2.7, 2.7]",5,0,16,16,10,,,,,5,0,5,0,down,1.24211922858,PIAs,m,24,60.0131714195,Set,2017_12_21_1705,
"[2.8, 2.8]",5,0,17,17,16,,,,,0,0,0,0,down,2.76690727344,PIAs,m,24,60.0131714195,Set,2017_12_21_1705,
"[2.8, 2.8]",5,0,17,17,16,,,,,1,0,1,0,down,0.59197621455,PIAs,m,24,60.0131714195,Set,2017_12_21_1705,
"[2.7, 2.7]",2,0,18,18,7,,,,,0,0,0,0,down,0.625483654323,PIAs,m,24,60.0131714195,Set,2017_12_21_1705,
"[2.7, 2.7]",2,0,18,18,7,,,,,1,0,1,0,down,1.09211832075,PIAs,m,24,60.0131714195,Set,2017_12_21_1705,
"[3.0, 3.0]",3,0,19,19,26,,,,,0,0,0,0,down,2.90022729081,PIAs,m,24,60.0131714195,Set,2017_12_21_1705,
"[3.0, 3.0]",3,0,19,19,26,,,,,1,0,1,0,down,0.558796803234,PIAs,m,24,60.0131714195,Set,2017_12_21_1705,
"[2.6, 2.6]",2,0,20,20,1,,,,,0,0,0,0,down,1.91689870751,PIAs,m,24,60.0131714195,Set,2017_12_21_1705,
"[2.6, 2.6]",2,0,20,20,1,,,,,1,0,1,0,down,0.508793211193,PIAs,m,24,60.0131714195,Set,2017_12_21_1705,
"[2.6, 2.6]",4,0,21,21,3,,,,,0,0,0,0,down,0.866890378529,PIAs,m,24,60.0131714195,Set,2017_12_21_1705,
"[2.6, 2.6]",4,0,21,21,3,,,,,1,0,1,0,down,0.70889165916,PIAs,m,24,60.0131714195,Set,2017_12_21_1705,
"[2.8, 2.8]",2,0,22,22,13,,,,,0,0,0,0,down,0.992175478954,PIAs,m,24,60.0131714195,Set,2017_12_21_1705,
"[2.8, 2.8]",2,0,22,22,13,,,,,1,0,1,0,down,1.40878879011,PIAs,m,24,60.0131714195,Set,2017_12_21_1705,
"[2.6, 2.6]",6,0,23,23,5,,,,,0,0,0,0,down,0.40877457941,PIAs,m,24,60.0131714195,Set,2017_12_21_1705,
"[2.6, 2.6]",6,0,23,23,5,,,,,1,0,1,0,down,0.358782039955,PIAs,m,24,60.0131714195,Set,2017_12_21_1705,
"[2.9, 2.9]",4,0,24,24,21,,,,,0,0,0,0,down,2.35876269778,PIAs,m,24,60.0131714195,Set,2017_12_21_1705,
"[2.9, 2.9]",4,0,24,24,21,,,,,1,0,1,0,down,0.475457482971,PIAs,m,24,60.0131714195,Set,2017_12_21_1705,
"[2.9, 2.9]",3,0,25,25,20,,,,,0,0,0,0,down,0.658783855848,PIAs,m,24,60.0131714195,Set,2017_12_21_1705,
"[2.9, 2.9]",3,0,25,25,20,,,,,1,0,1,0,down,0.542124597006,PIAs,m,24,60.0131714195,Set,2017_12_21_1705,
"[2.9, 2.9]",6,0,26,26,23,,,,,0,0,0,0,down,0.483576084836,PIAs,m,24,60.0131714195,Set,2017_12_21_1705,
"[2.9, 2.9]",6,0,26,26,23,,,,,1,0,1,0,down,0.308622525888,PIAs,m,24,60.0131714195,Set,2017_12_21_1705,
"[3.0, 3.0]",6,0,27,27,29,,,,,0,0,0,0,down,0.666893773247,PIAs,m,24,60.0131714195,Set,2017_12_21_1705,
"[3.0, 3.0]",6,0,27,27,29,,,,,1,0,1,0,down,0.392129215528,PIAs,m,24,60.0131714195,Set,2017_12_21_1705,
"[2.6, 2.6]",5,0,28,28,4,,,,,0,0,0,0,down,0.533421781263,PIAs,m,24,60.0131714195,Set,2017_12_21_1705,
"[2.6, 2.6]",5,0,28,28,4,,,,,1,0,1,0,down,0.458775803098,PIAs,m,24,60.0131714195,Set,2017_12_21_1705,
"[3.0, 3.0]",2,0,29,29,25,,,,,0,0,0,0,left,0.808797395322,PIAs,m,24,60.0131714195,Set,2017_12_21_1705,
"[3.0, 3.0]",2,0,29,29,25,,,,,1,0,1,0,left,0.50880189531,PIAs,m,24,60.0131714195,Set,2017_12_21_1705,
"[3.0, 3.0]",2,0,29,29,25,,,,,2,0,2,0,down,4.02543818031,PIAs,m,24,60.0131714195,Set,2017_12_21_1705,
"[3.0, 3.0]",2,0,29,29,25,,,,,3,0,3,0,down,0.392125662882,PIAs,m,24,60.0131714195,Set,2017_12_21_1705,
"[3.0, 3.0]",2,0,29,29,25,,,,,4,0,4,0,left,1.99211232061,PIAs,m,24,60.0131714195,Set,2017_12_21_1705,
"[3.0, 3.0]",2,0,29,29,25,,,,,5,0,5,0,down,0.50880663225,PIAs,m,24,60.0131714195,Set,2017_12_21_1705,
"[3.0, 3.0]",2,0,29,29,25,,,,,6,0,6,0,down,0.458791987388,PIAs,m,24,60.0131714195,Set,2017_12_21_1705,
