size,n,trials_2.thisRepN,trials_2.thisTrialN,trials_2.thisN,trials_2.thisIndex,trials.thisRepN,trials.thisTrialN,trials.thisN,trials.thisIndex,trials_3.thisRepN,trials_3.thisTrialN,trials_3.thisN,trials_3.thisIndex,answer.keys,answer.rt,participant,gender,age,frameRate,expName,date,
"[2.8, 2.8]",1,0,0,0,12,,,,,0,0,0,0,down,3.50878373739,PK,f,18,59.9931323229,Set,2017_12_14_2134,
"[2.8, 2.8]",1,0,0,0,12,,,,,1,0,1,0,right,3.84211220226,PK,f,18,59.9931323229,Set,2017_12_14_2134,
"[2.8, 2.8]",1,0,0,0,12,,,,,2,0,2,0,right,2.72544781193,PK,f,18,59.9931323229,Set,2017_12_14_2134,
"[2.8, 2.8]",1,0,0,0,12,,,,,3,0,3,0,down,1.79213584714,PK,f,18,59.9931323229,Set,2017_12_14_2134,
"[2.8, 2.8]",1,0,0,0,12,,,,,4,0,4,0,right,2.54208986003,PK,f,18,59.9931323229,Set,2017_12_14_2134,
"[2.8, 2.8]",1,0,0,0,12,,,,,5,0,5,0,right,1.19213497872,PK,f,18,59.9931323229,Set,2017_12_14_2134,
"[2.8, 2.8]",1,0,0,0,12,,,,,6,0,6,0,down,1.64211362333,PK,f,18,59.9931323229,Set,2017_12_14_2134,
"[2.8, 2.8]",1,0,0,0,12,,,,,7,0,7,0,down,1.55878377685,PK,f,18,59.9931323229,Set,2017_12_14_2134,
"[2.6, 2.6]",2,0,1,1,1,,,,,0,0,0,0,right,3.10022113292,PK,f,18,59.9931323229,Set,2017_12_14_2134,
"[2.6, 2.6]",2,0,1,1,1,,,,,1,0,1,0,right,1.30878357949,PK,f,18,59.9931323229,Set,2017_12_14_2134,
"[2.6, 2.6]",2,0,1,1,1,,,,,2,0,2,0,down,1.14194388545,PK,f,18,59.9931323229,Set,2017_12_14_2134,
"[2.6, 2.6]",2,0,1,1,1,,,,,3,0,3,0,right,0.616920970831,PK,f,18,59.9931323229,Set,2017_12_14_2134,
"[2.6, 2.6]",2,0,1,1,1,,,,,4,0,4,0,right,2.90877971103,PK,f,18,59.9931323229,Set,2017_12_14_2134,
"[2.6, 2.6]",2,0,1,1,1,,,,,5,0,5,0,down,0.792115320699,PK,f,18,59.9931323229,Set,2017_12_14_2134,
"[2.6, 2.6]",2,0,1,1,1,,,,,6,0,6,0,right,2.80878673738,PK,f,18,59.9931323229,Set,2017_12_14_2134,
"[2.6, 2.6]",2,0,1,1,1,,,,,7,0,7,0,down,2.37550082539,PK,f,18,59.9931323229,Set,2017_12_14_2134,
"[2.6, 2.6]",2,0,1,1,1,,,,,8,0,8,0,right,1.12544615402,PK,f,18,59.9931323229,Set,2017_12_14_2134,
"[2.6, 2.6]",2,0,1,1,1,,,,,9,0,9,0,right,4.9587635662,PK,f,18,59.9931323229,Set,2017_12_14_2134,
"[2.6, 2.6]",2,0,1,1,1,,,,,10,0,10,0,down,1.37544082504,PK,f,18,59.9931323229,Set,2017_12_14_2134,
"[2.6, 2.6]",2,0,1,1,1,,,,,11,0,11,0,right,1.40880615856,PK,f,18,59.9931323229,Set,2017_12_14_2134,
"[2.6, 2.6]",2,0,1,1,1,,,,,12,0,12,0,right,1.13351778181,PK,f,18,59.9931323229,Set,2017_12_14_2134,
"[2.6, 2.6]",2,0,1,1,1,,,,,13,0,13,0,down,0.4169022602,PK,f,18,59.9931323229,Set,2017_12_14_2134,
"[2.6, 2.6]",2,0,1,1,1,,,,,14,0,14,0,down,0.792152031456,PK,f,18,59.9931323229,Set,2017_12_14_2134,
"[2.6, 2.6]",2,0,1,1,1,,,,,15,0,15,0,right,1.30876976361,PK,f,18,59.9931323229,Set,2017_12_14_2134,
"[2.6, 2.6]",2,0,1,1,1,,,,,16,0,16,0,down,0.94209728112,PK,f,18,59.9931323229,Set,2017_12_14_2134,
"[2.6, 2.6]",2,0,1,1,1,,,,,17,0,17,0,right,0.958777382068,PK,f,18,59.9931323229,Set,2017_12_14_2134,
"[2.6, 2.6]",2,0,1,1,1,,,,,18,0,18,0,down,3.29211334699,PK,f,18,59.9931323229,Set,2017_12_14_2134,
"[2.6, 2.6]",2,0,1,1,1,,,,,19,0,19,0,right,0.242128307611,PK,f,18,59.9931323229,Set,2017_12_14_2134,
"[2.6, 2.6]",2,0,1,1,1,,,,,20,0,20,0,right,0.3588313824,PK,f,18,59.9931323229,Set,2017_12_14_2134,
"[2.6, 2.6]",2,0,1,1,1,,,,,21,0,21,0,right,0.292127557623,PK,f,18,59.9931323229,Set,2017_12_14_2134,
"[2.6, 2.6]",2,0,1,1,1,,,,,22,0,22,0,down,0.408813263872,PK,f,18,59.9931323229,Set,2017_12_14_2134,
"[2.6, 2.6]",2,0,1,1,1,,,,,23,0,23,0,right,0.642117570722,PK,f,18,59.9931323229,Set,2017_12_14_2134,
"[2.6, 2.6]",2,0,1,1,1,,,,,24,0,24,0,down,0.292104267995,PK,f,18,59.9931323229,Set,2017_12_14_2134,
"[2.6, 2.6]",2,0,1,1,1,,,,,25,0,25,0,down,0.40882234287,PK,f,18,59.9931323229,Set,2017_12_14_2134,
"[2.6, 2.6]",2,0,1,1,1,,,,,26,0,26,0,right,0.583595505974,PK,f,18,59.9931323229,Set,2017_12_14_2134,
"[2.6, 2.6]",2,0,1,1,1,,,,,27,0,27,0,right,0.908781289996,PK,f,18,59.9931323229,Set,2017_12_14_2134,
"[2.6, 2.6]",2,0,1,1,1,,,,,28,0,28,0,down,0.442148597213,PK,f,18,59.9931323229,Set,2017_12_14_2134,
"[2.6, 2.6]",2,0,1,1,1,,,,,29,0,29,0,down,0.492164821,PK,f,18,59.9931323229,Set,2017_12_14_2134,
"[2.6, 2.6]",2,0,1,1,1,,,,,30,0,30,0,right,0.292129136564,PK,f,18,59.9931323229,Set,2017_12_14_2134,
"[2.6, 2.6]",2,0,1,1,1,,,,,31,0,31,0,down,0.692124715497,PK,f,18,59.9931323229,Set,2017_12_14_2134,
"[2.6, 2.6]",2,0,1,1,1,,,,,32,0,32,0,down,0.408814842827,PK,f,18,59.9931323229,Set,2017_12_14_2134,
"[3.0, 3.0]",6,0,2,2,29,,,,,0,0,0,0,left,2.04211709702,PK,f,18,59.9931323229,Set,2017_12_14_2134,
"[3.0, 3.0]",6,0,2,2,29,,,,,1,0,1,0,left,3.14212072862,PK,f,18,59.9931323229,Set,2017_12_14_2134,
"[3.0, 3.0]",6,0,2,2,29,,,,,2,0,2,0,down,0.742071859902,PK,f,18,59.9931323229,Set,2017_12_14_2134,
"[3.0, 3.0]",6,0,2,2,29,,,,,3,0,3,0,down,0.708802448004,PK,f,18,59.9931323229,Set,2017_12_14_2134,
"[2.7, 2.7]",1,0,3,3,6,,,,,0,0,0,0,down,1.09215068934,PK,f,18,59.9931323229,Set,2017_12_14_2134,
"[2.7, 2.7]",1,0,3,3,6,,,,,1,0,1,0,down,1.22546123306,PK,f,18,59.9931323229,Set,2017_12_14_2134,
"[2.9, 2.9]",2,0,4,4,19,,,,,0,0,0,0,down,2.6921018206,PK,f,18,59.9931323229,Set,2017_12_14_2134,
"[2.9, 2.9]",2,0,4,4,19,,,,,1,0,1,0,down,0.775507062281,PK,f,18,59.9931323229,Set,2017_12_14_2134,
"[2.9, 2.9]",2,0,4,4,19,,,,,2,0,2,0,right,1.62544575927,PK,f,18,59.9931323229,Set,2017_12_14_2134,
"[2.9, 2.9]",2,0,4,4,19,,,,,3,0,3,0,down,0.550306751858,PK,f,18,59.9931323229,Set,2017_12_14_2134,
"[2.9, 2.9]",2,0,4,4,19,,,,,4,0,4,0,down,0.792129531314,PK,f,18,59.9931323229,Set,2017_12_14_2134,
"[2.9, 2.9]",2,0,4,4,19,,,,,5,0,5,0,right,0.90877813207,PK,f,18,59.9931323229,Set,2017_12_14_2134,
"[2.9, 2.9]",2,0,4,4,19,,,,,6,0,6,0,down,0.475471298909,PK,f,18,59.9931323229,Set,2017_12_14_2134,
"[2.9, 2.9]",2,0,4,4,19,,,,,7,0,7,0,down,0.492181794776,PK,f,18,59.9931323229,Set,2017_12_14_2134,
"[2.8, 2.8]",4,0,5,5,15,,,,,0,0,0,0,down,0.758802487486,PK,f,18,59.9931323229,Set,2017_12_14_2134,
"[2.8, 2.8]",4,0,5,5,15,,,,,1,0,1,0,down,0.616921365567,PK,f,18,59.9931323229,Set,2017_12_14_2134,
"[2.8, 2.8]",5,0,6,6,16,,,,,0,0,0,0,left,0.892187636928,PK,f,18,59.9931323229,Set,2017_12_14_2134,
"[2.8, 2.8]",5,0,6,6,16,,,,,1,0,1,0,left,3.44212254444,PK,f,18,59.9931323229,Set,2017_12_14_2134,
"[2.8, 2.8]",5,0,6,6,16,,,,,2,0,2,0,down,0.742093570574,PK,f,18,59.9931323229,Set,2017_12_14_2134,
"[2.8, 2.8]",5,0,6,6,16,,,,,3,0,3,0,down,0.608781842631,PK,f,18,59.9931323229,Set,2017_12_14_2134,
"[2.8, 2.8]",5,0,6,6,16,,,,,4,0,4,0,left,1.14214914985,PK,f,18,59.9931323229,Set,2017_12_14_2134,
"[2.8, 2.8]",5,0,6,6,16,,,,,5,0,5,0,down,0.658798461154,PK,f,18,59.9931323229,Set,2017_12_14_2134,
"[2.8, 2.8]",5,0,6,6,16,,,,,6,0,6,0,down,0.625473785767,PK,f,18,59.9931323229,Set,2017_12_14_2134,
"[2.8, 2.8]",5,0,6,6,16,,,,,7,0,7,0,right,1.22545807513,PK,f,18,59.9931323229,Set,2017_12_14_2134,
"[2.8, 2.8]",5,0,6,6,16,,,,,8,0,8,0,down,0.425663102695,PK,f,18,59.9931323229,Set,2017_12_14_2134,
"[2.8, 2.8]",5,0,6,6,16,,,,,9,0,9,0,down,0.433639993076,PK,f,18,59.9931323229,Set,2017_12_14_2134,
"[2.9, 2.9]",6,0,7,7,23,,,,,0,0,0,0,left,0.700288712265,PK,f,18,59.9931323229,Set,2017_12_14_2134,
"[2.9, 2.9]",6,0,7,7,23,,,,,1,0,1,0,down,0.850078434698,PK,f,18,59.9931323229,Set,2017_12_14_2134,
"[2.9, 2.9]",6,0,7,7,23,,,,,2,0,2,0,down,0.41703962945,PK,f,18,59.9931323229,Set,2017_12_14_2134,
"[2.8, 2.8]",2,0,8,8,13,,,,,0,0,0,0,down,0.658830435015,PK,f,18,59.9931323229,Set,2017_12_14_2134,
"[2.8, 2.8]",2,0,8,8,13,,,,,1,0,1,0,down,0.675505799125,PK,f,18,59.9931323229,Set,2017_12_14_2134,
"[2.8, 2.8]",2,0,8,8,13,,,,,2,0,2,0,left,0.775454167218,PK,f,18,59.9931323229,Set,2017_12_14_2134,
"[2.8, 2.8]",2,0,8,8,13,,,,,3,0,3,0,down,0.558789303192,PK,f,18,59.9931323229,Set,2017_12_14_2134,
"[2.8, 2.8]",2,0,8,8,13,,,,,4,0,4,0,down,0.592134505016,PK,f,18,59.9931323229,Set,2017_12_14_2134,
"[2.7, 2.7]",5,0,9,9,10,,,,,0,0,0,0,left,0.742131860272,PK,f,18,59.9931323229,Set,2017_12_14_2134,
"[2.7, 2.7]",5,0,9,9,10,,,,,1,0,1,0,down,2.1588312245,PK,f,18,59.9931323229,Set,2017_12_14_2134,
"[2.7, 2.7]",5,0,9,9,10,,,,,2,0,2,0,down,0.692131031319,PK,f,18,59.9931323229,Set,2017_12_14_2134,
"[3.0, 3.0]",1,0,10,10,24,,,,,0,0,0,0,down,0.642136912924,PK,f,18,59.9931323229,Set,2017_12_14_2134,
"[3.0, 3.0]",1,0,10,10,24,,,,,1,0,1,0,down,0.642100596931,PK,f,18,59.9931323229,Set,2017_12_14_2134,
"[3.0, 3.0]",1,0,10,10,24,,,,,2,0,2,0,left,0.675474219985,PK,f,18,59.9931323229,Set,2017_12_14_2134,
"[3.0, 3.0]",1,0,10,10,24,,,,,3,0,3,0,down,0.375465693607,PK,f,18,59.9931323229,Set,2017_12_14_2134,
"[3.0, 3.0]",1,0,10,10,24,,,,,4,0,4,0,down,0.975470114689,PK,f,18,59.9931323229,Set,2017_12_14_2134,
"[2.7, 2.7]",6,0,11,11,11,,,,,0,0,0,0,down,0.542173544731,PK,f,18,59.9931323229,Set,2017_12_14_2134,
"[2.7, 2.7]",6,0,11,11,11,,,,,1,0,1,0,down,0.692202873848,PK,f,18,59.9931323229,Set,2017_12_14_2134,
"[3.0, 3.0]",4,0,12,12,27,,,,,0,0,0,0,right,0.175456061974,PK,f,18,59.9931323229,Set,2017_12_14_2134,
"[3.0, 3.0]",4,0,12,12,27,,,,,1,0,1,0,down,1.64213020237,PK,f,18,59.9931323229,Set,2017_12_14_2134,
"[3.0, 3.0]",4,0,12,12,27,,,,,2,0,2,0,down,0.692153531447,PK,f,18,59.9931323229,Set,2017_12_14_2134,
"[2.9, 2.9]",3,0,13,13,20,,,,,0,0,0,0,left,0.608803948024,PK,f,18,59.9931323229,Set,2017_12_14_2134,
"[2.9, 2.9]",3,0,13,13,20,,,,,1,0,1,0,down,0.783566847909,PK,f,18,59.9931323229,Set,2017_12_14_2134,
"[2.9, 2.9]",3,0,13,13,20,,,,,2,0,2,0,down,0.458761987247,PK,f,18,59.9931323229,Set,2017_12_14_2134,
"[3.0, 3.0]",3,0,14,14,26,,,,,0,0,0,0,down,0.43357565059,PK,f,18,59.9931323229,Set,2017_12_14_2134,
"[3.0, 3.0]",3,0,14,14,26,,,,,1,0,1,0,down,0.566901983868,PK,f,18,59.9931323229,Set,2017_12_14_2134,
"[2.6, 2.6]",5,0,15,15,4,,,,,0,0,0,0,down,0.383638769388,PK,f,18,59.9931323229,Set,2017_12_14_2134,
"[2.6, 2.6]",5,0,15,15,4,,,,,1,0,1,0,down,0.708820606029,PK,f,18,59.9931323229,Set,2017_12_14_2134,
"[2.9, 2.9]",4,0,16,16,21,,,,,0,0,0,0,down,0.69216458415,PK,f,18,59.9931323229,Set,2017_12_14_2134,
"[2.9, 2.9]",4,0,16,16,21,,,,,1,0,1,0,down,1.40879155321,PK,f,18,59.9931323229,Set,2017_12_14_2134,
"[2.9, 2.9]",1,0,17,17,18,,,,,0,0,0,0,down,1.70884231669,PK,f,18,59.9931323229,Set,2017_12_14_2134,
"[2.9, 2.9]",1,0,17,17,18,,,,,1,0,1,0,left,0.883500215918,PK,f,18,59.9931323229,Set,2017_12_14_2134,
"[2.9, 2.9]",1,0,17,17,18,,,,,2,0,2,0,down,0.700233448792,PK,f,18,59.9931323229,Set,2017_12_14_2134,
"[2.9, 2.9]",1,0,17,17,18,,,,,3,0,3,0,down,1.33359294017,PK,f,18,59.9931323229,Set,2017_12_14_2134,
"[3.0, 3.0]",2,0,18,18,25,,,,,0,0,0,0,left,0.633584492738,PK,f,18,59.9931323229,Set,2017_12_14_2134,
"[3.0, 3.0]",2,0,18,18,25,,,,,1,0,1,0,left,1.04213012342,PK,f,18,59.9931323229,Set,2017_12_14_2134,
"[3.0, 3.0]",2,0,18,18,25,,,,,2,0,2,0,down,0.541966306642,PK,f,18,59.9931323229,Set,2017_12_14_2134,
"[3.0, 3.0]",2,0,18,18,25,,,,,3,0,3,0,left,0.575501378044,PK,f,18,59.9931323229,Set,2017_12_14_2134,
"[3.0, 3.0]",2,0,18,18,25,,,,,4,0,4,0,down,0.550075829407,PK,f,18,59.9931323229,Set,2017_12_14_2134,
"[3.0, 3.0]",2,0,18,18,25,,,,,5,0,5,0,left,0.842144570881,PK,f,18,59.9931323229,Set,2017_12_14_2134,
"[3.0, 3.0]",2,0,18,18,25,,,,,6,0,6,0,down,0.35877059256,PK,f,18,59.9931323229,Set,2017_12_14_2134,
"[3.0, 3.0]",2,0,18,18,25,,,,,7,0,7,0,down,0.308570815032,PK,f,18,59.9931323229,Set,2017_12_14_2134,
"[2.6, 2.6]",4,0,19,19,3,,,,,0,0,0,0,down,0.475447614546,PK,f,18,59.9931323229,Set,2017_12_14_2134,
"[2.6, 2.6]",4,0,19,19,3,,,,,1,0,1,0,down,1.32543604869,PK,f,18,59.9931323229,Set,2017_12_14_2134,
"[2.8, 2.8]",3,0,20,20,14,,,,,0,0,0,0,right,0.416920812931,PK,f,18,59.9931323229,Set,2017_12_14_2134,
"[2.8, 2.8]",3,0,20,20,14,,,,,1,0,1,0,down,0.975498141168,PK,f,18,59.9931323229,Set,2017_12_14_2134,
"[2.8, 2.8]",3,0,20,20,14,,,,,2,0,2,0,down,0.416951602616,PK,f,18,59.9931323229,Set,2017_12_14_2134,
"[2.7, 2.7]",2,0,21,21,7,,,,,0,0,0,0,down,0.542130912901,PK,f,18,59.9931323229,Set,2017_12_14_2134,
"[2.7, 2.7]",2,0,21,21,7,,,,,1,0,1,0,down,1.14212862341,PK,f,18,59.9931323229,Set,2017_12_14_2134,
"[2.6, 2.6]",6,0,22,22,5,,,,,0,0,0,0,right,1.14213849189,PK,f,18,59.9931323229,Set,2017_12_14_2134,
"[2.6, 2.6]",6,0,22,22,5,,,,,1,0,1,0,down,0.758747618733,PK,f,18,59.9931323229,Set,2017_12_14_2134,
"[2.6, 2.6]",6,0,22,22,5,,,,,2,0,2,0,left,0.666915483962,PK,f,18,59.9931323229,Set,2017_12_14_2134,
"[2.6, 2.6]",6,0,22,22,5,,,,,3,0,3,0,down,1.09215266303,PK,f,18,59.9931323229,Set,2017_12_14_2134,
"[2.6, 2.6]",6,0,22,22,5,,,,,4,0,4,0,down,1.13359554544,PK,f,18,59.9931323229,Set,2017_12_14_2134,
"[2.8, 2.8]",6,0,23,23,17,,,,,0,0,0,0,left,0.825500785926,PK,f,18,59.9931323229,Set,2017_12_14_2134,
"[2.8, 2.8]",6,0,23,23,17,,,,,1,0,1,0,down,1.25879538218,PK,f,18,59.9931323229,Set,2017_12_14_2134,
"[2.8, 2.8]",6,0,23,23,17,,,,,2,0,2,0,down,0.54212657077,PK,f,18,59.9931323229,Set,2017_12_14_2134,
"[2.6, 2.6]",1,0,24,24,0,,,,,0,0,0,0,down,0.758779592608,PK,f,18,59.9931323229,Set,2017_12_14_2134,
"[2.6, 2.6]",1,0,24,24,0,,,,,1,0,1,0,down,0.475455904074,PK,f,18,59.9931323229,Set,2017_12_14_2134,
"[2.7, 2.7]",4,0,25,25,9,,,,,0,0,0,0,down,0.692079715227,PK,f,18,59.9931323229,Set,2017_12_14_2134,
"[2.7, 2.7]",4,0,25,25,9,,,,,1,0,1,0,down,0.808785158442,PK,f,18,59.9931323229,Set,2017_12_14_2134,
"[2.9, 2.9]",5,0,26,26,22,,,,,0,0,0,0,left,0.608822895505,PK,f,18,59.9931323229,Set,2017_12_14_2134,
"[2.9, 2.9]",5,0,26,26,22,,,,,1,0,1,0,down,0.892136715556,PK,f,18,59.9931323229,Set,2017_12_14_2134,
"[2.9, 2.9]",5,0,26,26,22,,,,,2,0,2,0,down,1.60863184172,PK,f,18,59.9931323229,Set,2017_12_14_2134,
"[2.9, 2.9]",5,0,26,26,22,,,,,3,0,3,0,right,1.45862659169,PK,f,18,59.9931323229,Set,2017_12_14_2134,
"[2.9, 2.9]",5,0,26,26,22,,,,,4,0,4,0,down,0.542166044688,PK,f,18,59.9931323229,Set,2017_12_14_2134,
"[2.9, 2.9]",5,0,26,26,22,,,,,5,0,5,0,left,0.692128662879,PK,f,18,59.9931323229,Set,2017_12_14_2134,
"[2.9, 2.9]",5,0,26,26,22,,,,,6,0,6,0,down,0.391968556651,PK,f,18,59.9931323229,Set,2017_12_14_2134,
"[2.9, 2.9]",5,0,26,26,22,,,,,7,0,7,0,down,1.34214614982,PK,f,18,59.9931323229,Set,2017_12_14_2134,
"[3.0, 3.0]",5,0,27,27,28,,,,,0,0,0,0,down,0.958826724469,PK,f,18,59.9931323229,Set,2017_12_14_2134,
"[3.0, 3.0]",5,0,27,27,28,,,,,1,0,1,0,down,0.575510062292,PK,f,18,59.9931323229,Set,2017_12_14_2134,
"[2.6, 2.6]",3,0,28,28,2,,,,,0,0,0,0,down,0.358823487622,PK,f,18,59.9931323229,Set,2017_12_14_2134,
"[2.6, 2.6]",3,0,28,28,2,,,,,1,0,1,0,down,0.54213959715,PK,f,18,59.9931323229,Set,2017_12_14_2134,
"[2.7, 2.7]",3,0,29,29,8,,,,,0,0,0,0,down,0.392195531706,PK,f,18,59.9931323229,Set,2017_12_14_2134,
"[2.7, 2.7]",3,0,29,29,8,,,,,1,0,1,0,down,0.575460325155,PK,f,18,59.9931323229,Set,2017_12_14_2134,
