size,n,trials_2.thisRepN,trials_2.thisTrialN,trials_2.thisN,trials_2.thisIndex,trials.thisRepN,trials.thisTrialN,trials.thisN,trials.thisIndex,trials_3.thisRepN,trials_3.thisTrialN,trials_3.thisN,trials_3.thisIndex,answer.keys,answer.rt,participant,gender,age,frameRate,expName,date,
"[2.8, 2.8]",4,0,0,0,15,,,,,0,0,0,0,down,4.56687514161,RAA,f,22,59.9999526353,Set,2017_12_15_1946,
"[2.8, 2.8]",4,0,0,0,15,,,,,1,0,1,0,down,3.35874493452,RAA,f,22,59.9999526353,Set,2017_12_15_1946,
"[2.8, 2.8]",3,0,1,1,14,,,,,0,0,0,0,down,2.81689389172,RAA,f,22,59.9999526353,Set,2017_12_15_1946,
"[2.8, 2.8]",3,0,1,1,14,,,,,1,0,1,0,down,1.24209909694,RAA,f,22,59.9999526353,Set,2017_12_15_1946,
"[3.0, 3.0]",6,0,2,2,29,,,,,0,0,0,0,down,5.30873660551,RAA,f,22,59.9999526353,Set,2017_12_15_1946,
"[3.0, 3.0]",6,0,2,2,29,,,,,1,0,1,0,down,2.34219430803,RAA,f,22,59.9999526353,Set,2017_12_15_1946,
"[2.7, 2.7]",3,0,3,3,8,,,,,0,0,0,0,left,2.96698756336,RAA,f,22,59.9999526353,Set,2017_12_15_1946,
"[2.7, 2.7]",3,0,3,3,8,,,,,1,0,1,0,down,2.00019855381,RAA,f,22,59.9999526353,Set,2017_12_15_1946,
"[2.7, 2.7]",3,0,3,3,8,,,,,2,0,2,0,down,1.86689945756,RAA,f,22,59.9999526353,Set,2017_12_15_1946,
"[2.9, 2.9]",5,0,4,4,22,,,,,0,0,0,0,left,6.25017546158,RAA,f,22,59.9999526353,Set,2017_12_15_1946,
"[2.9, 2.9]",5,0,4,4,22,,,,,1,0,1,0,down,1.84214101822,RAA,f,22,59.9999526353,Set,2017_12_15_1946,
"[2.9, 2.9]",5,0,4,4,22,,,,,2,0,2,0,down,1.27545298298,RAA,f,22,59.9999526353,Set,2017_12_15_1946,
"[2.9, 2.9]",5,0,4,4,22,,,,,3,0,3,0,right,1.24211922861,RAA,f,22,59.9999526353,Set,2017_12_15_1946,
"[2.9, 2.9]",5,0,4,4,22,,,,,4,0,4,0,down,1.32545973305,RAA,f,22,59.9999526353,Set,2017_12_15_1946,
"[2.9, 2.9]",5,0,4,4,22,,,,,5,0,5,0,down,1.45877264522,RAA,f,22,59.9999526353,Set,2017_12_15_1946,
"[2.9, 2.9]",3,0,5,5,20,,,,,0,0,0,0,down,2.02544173293,RAA,f,22,59.9999526353,Set,2017_12_15_1946,
"[2.9, 2.9]",3,0,5,5,20,,,,,1,0,1,0,down,1.24211764967,RAA,f,22,59.9999526353,Set,2017_12_15_1946,
"[2.9, 2.9]",3,0,5,5,20,,,,,2,0,2,0,left,1.8587690136,RAA,f,22,59.9999526353,Set,2017_12_15_1946,
"[2.9, 2.9]",3,0,5,5,20,,,,,3,0,3,0,left,1.60878657948,RAA,f,22,59.9999526353,Set,2017_12_15_1946,
"[2.9, 2.9]",3,0,5,5,20,,,,,4,0,4,0,down,1.07547374628,RAA,f,22,59.9999526353,Set,2017_12_15_1946,
"[2.9, 2.9]",3,0,5,5,20,,,,,5,0,5,0,left,1.33343741292,RAA,f,22,59.9999526353,Set,2017_12_15_1946,
"[2.9, 2.9]",3,0,5,5,20,,,,,6,0,6,0,down,1.30022089608,RAA,f,22,59.9999526353,Set,2017_12_15_1946,
"[2.9, 2.9]",3,0,5,5,20,,,,,7,0,7,0,down,1.19211800492,RAA,f,22,59.9999526353,Set,2017_12_15_1946,
"[2.6, 2.6]",4,0,6,6,3,,,,,0,0,0,0,down,1.53355993997,RAA,f,22,59.9999526353,Set,2017_12_15_1946,
"[2.6, 2.6]",4,0,6,6,3,,,,,1,0,1,0,down,0.875464509416,RAA,f,22,59.9999526353,Set,2017_12_15_1946,
"[2.6, 2.6]",4,0,6,6,3,,,,,2,0,2,0,left,0.842092465318,RAA,f,22,59.9999526353,Set,2017_12_15_1946,
"[2.6, 2.6]",4,0,6,6,3,,,,,3,0,3,0,down,0.692140899802,RAA,f,22,59.9999526353,Set,2017_12_15_1946,
"[2.6, 2.6]",4,0,6,6,3,,,,,4,0,4,0,down,0.675478562101,RAA,f,22,59.9999526353,Set,2017_12_15_1946,
"[2.7, 2.7]",4,0,7,7,9,,,,,0,0,0,0,left,1.13357067687,RAA,f,22,59.9999526353,Set,2017_12_15_1946,
"[2.7, 2.7]",4,0,7,7,9,,,,,1,0,1,0,left,0.858766250429,RAA,f,22,59.9999526353,Set,2017_12_15_1946,
"[2.7, 2.7]",4,0,7,7,9,,,,,2,0,2,0,left,1.57546071991,RAA,f,22,59.9999526353,Set,2017_12_15_1946,
"[2.7, 2.7]",4,0,7,7,9,,,,,3,0,3,0,down,0.742106596939,RAA,f,22,59.9999526353,Set,2017_12_15_1946,
"[2.7, 2.7]",4,0,7,7,9,,,,,4,0,4,0,left,0.708733368665,RAA,f,22,59.9999526353,Set,2017_12_15_1946,
"[2.7, 2.7]",4,0,7,7,9,,,,,5,0,5,0,down,0.858791513718,RAA,f,22,59.9999526353,Set,2017_12_15_1946,
"[2.7, 2.7]",4,0,7,7,9,,,,,6,0,6,0,left,1.12540352216,RAA,f,22,59.9999526353,Set,2017_12_15_1946,
"[2.7, 2.7]",4,0,7,7,9,,,,,7,0,7,0,down,0.942128860275,RAA,f,22,59.9999526353,Set,2017_12_15_1946,
"[2.7, 2.7]",4,0,7,7,9,,,,,8,0,8,0,down,0.692124320747,RAA,f,22,59.9999526353,Set,2017_12_15_1946,
"[2.7, 2.7]",4,0,7,7,9,,,,,9,0,9,0,left,0.842122465489,RAA,f,22,59.9999526353,Set,2017_12_15_1946,
"[2.7, 2.7]",4,0,7,7,9,,,,,10,0,10,0,left,0.975456693559,RAA,f,22,59.9999526353,Set,2017_12_15_1946,
"[2.7, 2.7]",4,0,7,7,9,,,,,11,0,11,0,down,0.941955175018,RAA,f,22,59.9999526353,Set,2017_12_15_1946,
"[2.7, 2.7]",4,0,7,7,9,,,,,12,0,12,0,left,0.592132926045,RAA,f,22,59.9999526353,Set,2017_12_15_1946,
"[2.7, 2.7]",4,0,7,7,9,,,,,13,0,13,0,down,0.758796961134,RAA,f,22,59.9999526353,Set,2017_12_15_1946,
"[2.7, 2.7]",4,0,7,7,9,,,,,14,0,14,0,down,0.758806040161,RAA,f,22,59.9999526353,Set,2017_12_15_1946,
"[2.7, 2.7]",4,0,7,7,9,,,,,15,0,15,0,left,0.808781211032,RAA,f,22,59.9999526353,Set,2017_12_15_1946,
"[2.7, 2.7]",4,0,7,7,9,,,,,16,0,16,0,down,0.825453417201,RAA,f,22,59.9999526353,Set,2017_12_15_1946,
"[2.7, 2.7]",4,0,7,7,9,,,,,17,0,17,0,left,1.09195568814,RAA,f,22,59.9999526353,Set,2017_12_15_1946,
"[2.7, 2.7]",4,0,7,7,9,,,,,18,0,18,0,down,1.0254523909,RAA,f,22,59.9999526353,Set,2017_12_15_1946,
"[2.7, 2.7]",4,0,7,7,9,,,,,19,0,19,0,down,1.1921491893,RAA,f,22,59.9999526353,Set,2017_12_15_1946,
"[3.0, 3.0]",1,0,8,8,24,,,,,0,0,0,0,left,1.09211121543,RAA,f,22,59.9999526353,Set,2017_12_15_1946,
"[3.0, 3.0]",1,0,8,8,24,,,,,1,0,1,0,left,1.25864103914,RAA,f,22,59.9999526353,Set,2017_12_15_1946,
"[3.0, 3.0]",1,0,8,8,24,,,,,2,0,2,0,right,1.00862307849,RAA,f,22,59.9999526353,Set,2017_12_15_1946,
"[3.0, 3.0]",1,0,8,8,24,,,,,3,0,3,0,left,0.69213300501,RAA,f,22,59.9999526353,Set,2017_12_15_1946,
"[3.0, 3.0]",1,0,8,8,24,,,,,4,0,4,0,down,0.75878511896,RAA,f,22,59.9999526353,Set,2017_12_15_1946,
"[3.0, 3.0]",1,0,8,8,24,,,,,5,0,5,0,left,0.625454838271,RAA,f,22,59.9999526353,Set,2017_12_15_1946,
"[3.0, 3.0]",1,0,8,8,24,,,,,6,0,6,0,down,1.17544382505,RAA,f,22,59.9999526353,Set,2017_12_15_1946,
"[3.0, 3.0]",1,0,8,8,24,,,,,7,0,7,0,down,1.00878965849,RAA,f,22,59.9999526353,Set,2017_12_15_1946,
"[3.0, 3.0]",1,0,8,8,24,,,,,8,0,8,0,left,0.992145873519,RAA,f,22,59.9999526353,Set,2017_12_15_1946,
"[3.0, 3.0]",1,0,8,8,24,,,,,9,0,9,0,right,0.558812592819,RAA,f,22,59.9999526353,Set,2017_12_15_1946,
"[3.0, 3.0]",1,0,8,8,24,,,,,10,0,10,0,left,0.608806711185,RAA,f,22,59.9999526353,Set,2017_12_15_1946,
"[3.0, 3.0]",1,0,8,8,24,,,,,11,0,11,0,down,0.858776513633,RAA,f,22,59.9999526353,Set,2017_12_15_1946,
"[3.0, 3.0]",1,0,8,8,24,,,,,12,0,12,0,down,0.625420495955,RAA,f,22,59.9999526353,Set,2017_12_15_1946,
"[2.9, 2.9]",2,0,9,9,19,,,,,0,0,0,0,down,1.07543821976,RAA,f,22,59.9999526353,Set,2017_12_15_1946,
"[2.9, 2.9]",2,0,9,9,19,,,,,1,0,1,0,left,0.825450654025,RAA,f,22,59.9999526353,Set,2017_12_15_1946,
"[2.9, 2.9]",2,0,9,9,19,,,,,2,0,2,0,left,0.658784250525,RAA,f,22,59.9999526353,Set,2017_12_15_1946,
"[2.9, 2.9]",2,0,9,9,19,,,,,3,0,3,0,down,0.825458548847,RAA,f,22,59.9999526353,Set,2017_12_15_1946,
"[2.9, 2.9]",2,0,9,9,19,,,,,4,0,4,0,down,0.808786342648,RAA,f,22,59.9999526353,Set,2017_12_15_1946,
"[2.6, 2.6]",5,0,10,10,4,,,,,0,0,0,0,left,0.925453496166,RAA,f,22,59.9999526353,Set,2017_12_15_1946,
"[2.6, 2.6]",5,0,10,10,4,,,,,1,0,1,0,down,1.6088114481,RAA,f,22,59.9999526353,Set,2017_12_15_1946,
"[2.6, 2.6]",5,0,10,10,4,,,,,2,0,2,0,right,0.925458233047,RAA,f,22,59.9999526353,Set,2017_12_15_1946,
"[2.6, 2.6]",5,0,10,10,4,,,,,3,0,3,0,left,0.825467627816,RAA,f,22,59.9999526353,Set,2017_12_15_1946,
"[2.6, 2.6]",5,0,10,10,4,,,,,4,0,4,0,left,0.592115162784,RAA,f,22,59.9999526353,Set,2017_12_15_1946,
"[2.6, 2.6]",5,0,10,10,4,,,,,5,0,5,0,left,0.792111373303,RAA,f,22,59.9999526353,Set,2017_12_15_1946,
"[2.6, 2.6]",5,0,10,10,4,,,,,6,0,6,0,left,0.625491549028,RAA,f,22,59.9999526353,Set,2017_12_15_1946,
"[2.6, 2.6]",5,0,10,10,4,,,,,7,0,7,0,down,0.825449469819,RAA,f,22,59.9999526353,Set,2017_12_15_1946,
"[2.6, 2.6]",5,0,10,10,4,,,,,8,0,8,0,left,0.542092623218,RAA,f,22,59.9999526353,Set,2017_12_15_1946,
"[2.6, 2.6]",5,0,10,10,4,,,,,9,0,9,0,left,0.658655170817,RAA,f,22,59.9999526353,Set,2017_12_15_1946,
"[2.6, 2.6]",5,0,10,10,4,,,,,10,0,10,0,down,0.608781053161,RAA,f,22,59.9999526353,Set,2017_12_15_1946,
"[2.6, 2.6]",5,0,10,10,4,,,,,11,0,11,0,down,0.592129768163,RAA,f,22,59.9999526353,Set,2017_12_15_1946,
"[3.0, 3.0]",5,0,11,11,28,,,,,0,0,0,0,left,0.750229540863,RAA,f,22,59.9999526353,Set,2017_12_15_1946,
"[3.0, 3.0]",5,0,11,11,28,,,,,1,0,1,0,left,1.20880521118,RAA,f,22,59.9999526353,Set,2017_12_15_1946,
"[3.0, 3.0]",5,0,11,11,28,,,,,2,0,2,0,left,0.55879798744,RAA,f,22,59.9999526353,Set,2017_12_15_1946,
"[3.0, 3.0]",5,0,11,11,28,,,,,3,0,3,0,left,0.458804619091,RAA,f,22,59.9999526353,Set,2017_12_15_1946,
"[3.0, 3.0]",5,0,11,11,28,,,,,4,0,4,0,down,0.558819303376,RAA,f,22,59.9999526353,Set,2017_12_15_1946,
"[3.0, 3.0]",5,0,11,11,28,,,,,5,0,5,0,left,0.508851632534,RAA,f,22,59.9999526353,Set,2017_12_15_1946,
"[3.0, 3.0]",5,0,11,11,28,,,,,6,0,6,0,left,0.642150728789,RAA,f,22,59.9999526353,Set,2017_12_15_1946,
"[3.0, 3.0]",5,0,11,11,28,,,,,7,0,7,0,down,0.492153373576,RAA,f,22,59.9999526353,Set,2017_12_15_1946,
"[3.0, 3.0]",5,0,11,11,28,,,,,8,0,8,0,left,0.408779711026,RAA,f,22,59.9999526353,Set,2017_12_15_1946,
"[3.0, 3.0]",5,0,11,11,28,,,,,9,0,9,0,left,0.392125662882,RAA,f,22,59.9999526353,Set,2017_12_15_1946,
"[3.0, 3.0]",5,0,11,11,28,,,,,10,0,10,0,down,0.441981622513,RAA,f,22,59.9999526353,Set,2017_12_15_1946,
"[3.0, 3.0]",5,0,11,11,28,,,,,11,0,11,0,down,0.508794790076,RAA,f,22,59.9999526353,Set,2017_12_15_1946,
"[3.0, 3.0]",5,0,11,11,28,,,,,12,0,12,0,left,0.47545985147,RAA,f,22,59.9999526353,Set,2017_12_15_1946,
"[3.0, 3.0]",5,0,11,11,28,,,,,13,0,13,0,down,0.458859487844,RAA,f,22,59.9999526353,Set,2017_12_15_1946,
"[3.0, 3.0]",5,0,11,11,28,,,,,14,0,14,0,left,0.358790724247,RAA,f,22,59.9999526353,Set,2017_12_15_1946,
"[3.0, 3.0]",5,0,11,11,28,,,,,15,0,15,0,down,0.675495141157,RAA,f,22,59.9999526353,Set,2017_12_15_1946,
"[3.0, 3.0]",5,0,11,11,28,,,,,16,0,16,0,left,0.442129649746,RAA,f,22,59.9999526353,Set,2017_12_15_1946,
"[3.0, 3.0]",5,0,11,11,28,,,,,17,0,17,0,down,0.375475956826,RAA,f,22,59.9999526353,Set,2017_12_15_1946,
"[3.0, 3.0]",5,0,11,11,28,,,,,18,0,18,0,left,0.375260429195,RAA,f,22,59.9999526353,Set,2017_12_15_1946,
"[3.0, 3.0]",5,0,11,11,28,,,,,19,0,19,0,down,0.692123136541,RAA,f,22,59.9999526353,Set,2017_12_15_1946,
"[3.0, 3.0]",5,0,11,11,28,,,,,20,0,20,0,down,0.44214228139,RAA,f,22,59.9999526353,Set,2017_12_15_1946,
"[2.6, 2.6]",6,0,12,12,5,,,,,0,0,0,0,left,0.625453654036,RAA,f,22,59.9999526353,Set,2017_12_15_1946,
"[2.6, 2.6]",6,0,12,12,5,,,,,1,0,1,0,left,0.592137662956,RAA,f,22,59.9999526353,Set,2017_12_15_1946,
"[2.6, 2.6]",6,0,12,12,5,,,,,2,0,2,0,down,0.608783816308,RAA,f,22,59.9999526353,Set,2017_12_15_1946,
"[2.6, 2.6]",6,0,12,12,5,,,,,3,0,3,0,down,0.442105965369,RAA,f,22,59.9999526353,Set,2017_12_15_1946,
"[2.7, 2.7]",5,0,13,13,10,,,,,0,0,0,0,down,0.650243277807,RAA,f,22,59.9999526353,Set,2017_12_15_1946,
"[2.7, 2.7]",5,0,13,13,10,,,,,1,0,1,0,left,0.608783816308,RAA,f,22,59.9999526353,Set,2017_12_15_1946,
"[2.7, 2.7]",5,0,13,13,10,,,,,2,0,2,0,down,1.3921402682,RAA,f,22,59.9999526353,Set,2017_12_15_1946,
"[2.7, 2.7]",5,0,13,13,10,,,,,3,0,3,0,down,0.475450377708,RAA,f,22,59.9999526353,Set,2017_12_15_1946,
"[2.7, 2.7]",5,0,13,13,10,,,,,4,0,4,0,left,0.492123768112,RAA,f,22,59.9999526353,Set,2017_12_15_1946,
"[2.7, 2.7]",5,0,13,13,10,,,,,5,0,5,0,down,0.375445561891,RAA,f,22,59.9999526353,Set,2017_12_15_1946,
"[2.7, 2.7]",5,0,13,13,10,,,,,6,0,6,0,down,0.308804500644,RAA,f,22,59.9999526353,Set,2017_12_15_1946,
"[2.9, 2.9]",1,0,14,14,18,,,,,0,0,0,0,down,1.45877422416,RAA,f,22,59.9999526353,Set,2017_12_15_1946,
"[2.9, 2.9]",1,0,14,14,18,,,,,1,0,1,0,left,1.09206660988,RAA,f,22,59.9999526353,Set,2017_12_15_1946,
"[2.9, 2.9]",1,0,14,14,18,,,,,2,0,2,0,down,0.375477141031,RAA,f,22,59.9999526353,Set,2017_12_15_1946,
"[2.9, 2.9]",1,0,14,14,18,,,,,3,0,3,0,left,0.708775605744,RAA,f,22,59.9999526353,Set,2017_12_15_1946,
"[2.9, 2.9]",1,0,14,14,18,,,,,4,0,4,0,down,0.442097281106,RAA,f,22,59.9999526353,Set,2017_12_15_1946,
"[2.9, 2.9]",1,0,14,14,18,,,,,5,0,5,0,left,0.925468891015,RAA,f,22,59.9999526353,Set,2017_12_15_1946,
"[2.9, 2.9]",1,0,14,14,18,,,,,6,0,6,0,left,0.508782158431,RAA,f,22,59.9999526353,Set,2017_12_15_1946,
"[2.9, 2.9]",1,0,14,14,18,,,,,7,0,7,0,right,1.27547469368,RAA,f,22,59.9999526353,Set,2017_12_15_1946,
"[2.9, 2.9]",1,0,14,14,18,,,,,8,0,8,0,left,0.958791987417,RAA,f,22,59.9999526353,Set,2017_12_15_1946,
"[2.9, 2.9]",1,0,14,14,18,,,,,9,0,9,0,down,0.84211180752,RAA,f,22,59.9999526353,Set,2017_12_15_1946,
"[2.9, 2.9]",1,0,14,14,18,,,,,10,0,10,0,down,0.525485943712,RAA,f,22,59.9999526353,Set,2017_12_15_1946,
"[2.9, 2.9]",1,0,14,14,18,,,,,11,0,11,0,left,0.542137623444,RAA,f,22,59.9999526353,Set,2017_12_15_1946,
"[2.9, 2.9]",1,0,14,14,18,,,,,12,0,12,0,left,0.42546533834,RAA,f,22,59.9999526353,Set,2017_12_15_1946,
"[2.9, 2.9]",1,0,14,14,18,,,,,13,0,13,0,left,0.392114215443,RAA,f,22,59.9999526353,Set,2017_12_15_1946,
"[2.9, 2.9]",1,0,14,14,18,,,,,14,0,14,0,left,0.525454759336,RAA,f,22,59.9999526353,Set,2017_12_15_1946,
"[2.9, 2.9]",1,0,14,14,18,,,,,15,0,15,0,down,0.658782671584,RAA,f,22,59.9999526353,Set,2017_12_15_1946,
"[2.9, 2.9]",1,0,14,14,18,,,,,16,0,16,0,down,0.425475206837,RAA,f,22,59.9999526353,Set,2017_12_15_1946,
"[2.9, 2.9]",1,0,14,14,18,,,,,17,0,17,0,left,0.725285574095,RAA,f,22,59.9999526353,Set,2017_12_15_1946,
"[2.9, 2.9]",1,0,14,14,18,,,,,18,0,18,0,down,0.542149465648,RAA,f,22,59.9999526353,Set,2017_12_15_1946,
"[2.9, 2.9]",1,0,14,14,18,,,,,19,0,19,0,left,0.67546000937,RAA,f,22,59.9999526353,Set,2017_12_15_1946,
"[2.9, 2.9]",1,0,14,14,18,,,,,20,0,20,0,down,0.508850448328,RAA,f,22,59.9999526353,Set,2017_12_15_1946,
"[2.9, 2.9]",1,0,14,14,18,,,,,21,0,21,0,left,0.642093096889,RAA,f,22,59.9999526353,Set,2017_12_15_1946,
"[2.9, 2.9]",1,0,14,14,18,,,,,22,0,22,0,left,1.14213888661,RAA,f,22,59.9999526353,Set,2017_12_15_1946,
"[2.9, 2.9]",1,0,14,14,18,,,,,23,0,23,0,left,0.458791987447,RAA,f,22,59.9999526353,Set,2017_12_15_1946,
"[2.9, 2.9]",1,0,14,14,18,,,,,24,0,24,0,left,0.792133083945,RAA,f,22,59.9999526353,Set,2017_12_15_1946,
"[2.9, 2.9]",1,0,14,14,18,,,,,25,0,25,0,down,0.475456298824,RAA,f,22,59.9999526353,Set,2017_12_15_1946,
"[2.9, 2.9]",1,0,14,14,18,,,,,26,0,26,0,down,0.292124399712,RAA,f,22,59.9999526353,Set,2017_12_15_1946,
"[2.9, 2.9]",1,0,14,14,18,,,,,27,0,27,0,left,0.516892865387,RAA,f,22,59.9999526353,Set,2017_12_15_1946,
"[2.9, 2.9]",1,0,14,14,18,,,,,28,0,28,0,down,1.03387612611,RAA,f,22,59.9999526353,Set,2017_12_15_1946,
"[2.9, 2.9]",1,0,14,14,18,,,,,29,0,29,0,left,0.658809513843,RAA,f,22,59.9999526353,Set,2017_12_15_1946,
"[2.9, 2.9]",1,0,14,14,18,,,,,30,0,30,0,left,0.475496956962,RAA,f,22,59.9999526353,Set,2017_12_15_1946,
"[2.9, 2.9]",1,0,14,14,18,,,,,31,0,31,0,left,0.358776513633,RAA,f,22,59.9999526353,Set,2017_12_15_1946,
"[2.9, 2.9]",1,0,14,14,18,,,,,32,0,32,0,down,0.508793605841,RAA,f,22,59.9999526353,Set,2017_12_15_1946,
"[2.9, 2.9]",1,0,14,14,18,,,,,33,0,33,0,down,0.592128583929,RAA,f,22,59.9999526353,Set,2017_12_15_1946,
"[2.8, 2.8]",5,0,15,15,16,,,,,0,0,0,0,down,0.850291593873,RAA,f,22,59.9999526353,Set,2017_12_15_1946,
"[2.8, 2.8]",5,0,15,15,16,,,,,1,0,1,0,down,0.358782434749,RAA,f,22,59.9999526353,Set,2017_12_15_1946,
"[2.8, 2.8]",6,0,16,16,17,,,,,0,0,0,0,down,1.17547303575,RAA,f,22,59.9999526353,Set,2017_12_15_1946,
"[2.8, 2.8]",6,0,16,16,17,,,,,1,0,1,0,left,1.40880379014,RAA,f,22,59.9999526353,Set,2017_12_15_1946,
"[2.8, 2.8]",6,0,16,16,17,,,,,2,0,2,0,left,0.708790605859,RAA,f,22,59.9999526353,Set,2017_12_15_1946,
"[2.8, 2.8]",6,0,16,16,17,,,,,3,0,3,0,left,0.658770434646,RAA,f,22,59.9999526353,Set,2017_12_15_1946,
"[2.8, 2.8]",6,0,16,16,17,,,,,4,0,4,0,left,0.292138610326,RAA,f,22,59.9999526353,Set,2017_12_15_1946,
"[2.8, 2.8]",6,0,16,16,17,,,,,5,0,5,0,down,0.808787921618,RAA,f,22,59.9999526353,Set,2017_12_15_1946,
"[2.8, 2.8]",6,0,16,16,17,,,,,6,0,6,0,left,0.475466956792,RAA,f,22,59.9999526353,Set,2017_12_15_1946,
"[2.8, 2.8]",6,0,16,16,17,,,,,7,0,7,0,left,0.592143978749,RAA,f,22,59.9999526353,Set,2017_12_15_1946,
"[2.8, 2.8]",6,0,16,16,17,,,,,8,0,8,0,down,0.558773908357,RAA,f,22,59.9999526353,Set,2017_12_15_1946,
"[2.8, 2.8]",6,0,16,16,17,,,,,9,0,9,0,left,0.475444851356,RAA,f,22,59.9999526353,Set,2017_12_15_1946,
"[2.8, 2.8]",6,0,16,16,17,,,,,10,0,10,0,down,0.508812553337,RAA,f,22,59.9999526353,Set,2017_12_15_1946,
"[2.8, 2.8]",6,0,16,16,17,,,,,11,0,11,0,right,0.725464390969,RAA,f,22,59.9999526353,Set,2017_12_15_1946,
"[2.8, 2.8]",6,0,16,16,17,,,,,12,0,12,0,down,0.64214007085,RAA,f,22,59.9999526353,Set,2017_12_15_1946,
"[2.8, 2.8]",6,0,16,16,17,,,,,13,0,13,0,down,0.425467312045,RAA,f,22,59.9999526353,Set,2017_12_15_1946,
"[2.6, 2.6]",2,0,17,17,1,,,,,0,0,0,0,down,1.27544114084,RAA,f,22,59.9999526353,Set,2017_12_15_1946,
"[2.6, 2.6]",2,0,17,17,1,,,,,1,0,1,0,down,0.492131662904,RAA,f,22,59.9999526353,Set,2017_12_15_1946,
"[2.6, 2.6]",2,0,17,17,1,,,,,2,0,2,0,left,0.642123491794,RAA,f,22,59.9999526353,Set,2017_12_15_1946,
"[2.6, 2.6]",2,0,17,17,1,,,,,3,0,3,0,down,0.425461390958,RAA,f,22,59.9999526353,Set,2017_12_15_1946,
"[2.6, 2.6]",2,0,17,17,1,,,,,4,0,4,0,down,0.458784487389,RAA,f,22,59.9999526353,Set,2017_12_15_1946,
"[2.9, 2.9]",4,0,18,18,21,,,,,0,0,0,0,down,0.675445798755,RAA,f,22,59.9999526353,Set,2017_12_15_1946,
"[2.9, 2.9]",4,0,18,18,21,,,,,1,0,1,0,down,0.658791355847,RAA,f,22,59.9999526353,Set,2017_12_15_1946,
"[2.9, 2.9]",4,0,18,18,21,,,,,2,0,2,0,left,0.625462733064,RAA,f,22,59.9999526353,Set,2017_12_15_1946,
"[2.9, 2.9]",4,0,18,18,21,,,,,3,0,3,0,down,0.625446548744,RAA,f,22,59.9999526353,Set,2017_12_15_1946,
"[2.9, 2.9]",4,0,18,18,21,,,,,4,0,4,0,down,0.458792382153,RAA,f,22,59.9999526353,Set,2017_12_15_1946,
"[2.9, 2.9]",4,0,18,18,21,,,,,5,0,5,0,left,0.508835842949,RAA,f,22,59.9999526353,Set,2017_12_15_1946,
"[2.9, 2.9]",4,0,18,18,21,,,,,6,0,6,0,left,0.442129254981,RAA,f,22,59.9999526353,Set,2017_12_15_1946,
"[2.9, 2.9]",4,0,18,18,21,,,,,7,0,7,0,down,0.542130912916,RAA,f,22,59.9999526353,Set,2017_12_15_1946,
"[2.9, 2.9]",4,0,18,18,21,,,,,8,0,8,0,left,0.508769526758,RAA,f,22,59.9999526353,Set,2017_12_15_1946,
"[2.9, 2.9]",4,0,18,18,21,,,,,9,0,9,0,down,0.508814527042,RAA,f,22,59.9999526353,Set,2017_12_15_1946,
"[2.9, 2.9]",4,0,18,18,21,,,,,10,0,10,0,down,0.492129294464,RAA,f,22,59.9999526353,Set,2017_12_15_1946,
"[3.0, 3.0]",4,0,19,19,27,,,,,0,0,0,0,down,0.775456930394,RAA,f,22,59.9999526353,Set,2017_12_15_1946,
"[3.0, 3.0]",4,0,19,19,27,,,,,1,0,1,0,down,0.442116623337,RAA,f,22,59.9999526353,Set,2017_12_15_1946,
"[3.0, 3.0]",4,0,19,19,27,,,,,2,0,2,0,left,0.642134939233,RAA,f,22,59.9999526353,Set,2017_12_15_1946,
"[3.0, 3.0]",4,0,19,19,27,,,,,3,0,3,0,down,0.792128741828,RAA,f,22,59.9999526353,Set,2017_12_15_1946,
"[3.0, 3.0]",4,0,19,19,27,,,,,4,0,4,0,down,0.59211713649,RAA,f,22,59.9999526353,Set,2017_12_15_1946,
"[2.7, 2.7]",1,0,20,20,6,,,,,0,0,0,0,down,0.833594124386,RAA,f,22,59.9999526353,Set,2017_12_15_1946,
"[2.7, 2.7]",1,0,20,20,6,,,,,1,0,1,0,down,1.20878350054,RAA,f,22,59.9999526353,Set,2017_12_15_1946,
"[3.0, 3.0]",3,0,21,21,26,,,,,0,0,0,0,down,0.808792263735,RAA,f,22,59.9999526353,Set,2017_12_15_1946,
"[3.0, 3.0]",3,0,21,21,26,,,,,1,0,1,0,down,0.358784408425,RAA,f,22,59.9999526353,Set,2017_12_15_1946,
"[3.0, 3.0]",3,0,21,21,26,,,,,2,0,2,0,left,0.558792461088,RAA,f,22,59.9999526353,Set,2017_12_15_1946,
"[3.0, 3.0]",3,0,21,21,26,,,,,3,0,3,0,down,0.625472996267,RAA,f,22,59.9999526353,Set,2017_12_15_1946,
"[3.0, 3.0]",3,0,21,21,26,,,,,4,0,4,0,down,0.44213833398,RAA,f,22,59.9999526353,Set,2017_12_15_1946,
"[2.9, 2.9]",6,0,22,22,23,,,,,0,0,0,0,left,0.6836125587,RAA,f,22,59.9999526353,Set,2017_12_15_1946,
"[2.9, 2.9]",6,0,22,22,23,,,,,1,0,1,0,down,0.583550505718,RAA,f,22,59.9999526353,Set,2017_12_15_1946,
"[2.9, 2.9]",6,0,22,22,23,,,,,2,0,2,0,down,0.725544917776,RAA,f,22,59.9999526353,Set,2017_12_15_1946,
"[2.8, 2.8]",1,0,23,23,12,,,,,0,0,0,0,left,0.858788750571,RAA,f,22,59.9999526353,Set,2017_12_15_1946,
"[2.8, 2.8]",1,0,23,23,12,,,,,1,0,1,0,down,0.375455430389,RAA,f,22,59.9999526353,Set,2017_12_15_1946,
"[2.8, 2.8]",1,0,23,23,12,,,,,2,0,2,0,down,0.9087923427,RAA,f,22,59.9999526353,Set,2017_12_15_1946,
"[2.8, 2.8]",1,0,23,23,12,,,,,3,0,3,0,left,1.17544777243,RAA,f,22,59.9999526353,Set,2017_12_15_1946,
"[2.8, 2.8]",1,0,23,23,12,,,,,4,0,4,0,down,0.542106833804,RAA,f,22,59.9999526353,Set,2017_12_15_1946,
"[2.8, 2.8]",1,0,23,23,12,,,,,5,0,5,0,left,0.508788868989,RAA,f,22,59.9999526353,Set,2017_12_15_1946,
"[2.8, 2.8]",1,0,23,23,12,,,,,6,0,6,0,left,0.542117097037,RAA,f,22,59.9999526353,Set,2017_12_15_1946,
"[2.8, 2.8]",1,0,23,23,12,,,,,7,0,7,0,down,0.425471259427,RAA,f,22,59.9999526353,Set,2017_12_15_1946,
"[2.8, 2.8]",1,0,23,23,12,,,,,8,0,8,0,left,0.958780934743,RAA,f,22,59.9999526353,Set,2017_12_15_1946,
"[2.8, 2.8]",1,0,23,23,12,,,,,9,0,9,0,left,0.392109083827,RAA,f,22,59.9999526353,Set,2017_12_15_1946,
"[2.8, 2.8]",1,0,23,23,12,,,,,10,0,10,0,left,0.408782079467,RAA,f,22,59.9999526353,Set,2017_12_15_1946,
"[2.8, 2.8]",1,0,23,23,12,,,,,11,0,11,0,down,0.458776592597,RAA,f,22,59.9999526353,Set,2017_12_15_1946,
"[2.8, 2.8]",1,0,23,23,12,,,,,12,0,12,0,left,0.52545278563,RAA,f,22,59.9999526353,Set,2017_12_15_1946,
"[2.8, 2.8]",1,0,23,23,12,,,,,13,0,13,0,left,0.392120926001,RAA,f,22,59.9999526353,Set,2017_12_15_1946,
"[2.8, 2.8]",1,0,23,23,12,,,,,14,0,14,0,down,0.342132728692,RAA,f,22,59.9999526353,Set,2017_12_15_1946,
"[2.8, 2.8]",1,0,23,23,12,,,,,15,0,15,0,left,0.425462575164,RAA,f,22,59.9999526353,Set,2017_12_15_1946,
"[2.8, 2.8]",1,0,23,23,12,,,,,16,0,16,0,left,0.492125741817,RAA,f,22,59.9999526353,Set,2017_12_15_1946,
"[2.8, 2.8]",1,0,23,23,12,,,,,17,0,17,0,down,0.742122781259,RAA,f,22,59.9999526353,Set,2017_12_15_1946,
"[2.8, 2.8]",1,0,23,23,12,,,,,18,0,18,0,left,0.825474733138,RAA,f,22,59.9999526353,Set,2017_12_15_1946,
"[2.8, 2.8]",1,0,23,23,12,,,,,19,0,19,0,down,0.742127123405,RAA,f,22,59.9999526353,Set,2017_12_15_1946,
"[2.8, 2.8]",1,0,23,23,12,,,,,20,0,20,0,down,0.558781408414,RAA,f,22,59.9999526353,Set,2017_12_15_1946,
"[2.8, 2.8]",1,0,23,23,12,,,,,21,0,21,0,left,0.625450101419,RAA,f,22,59.9999526353,Set,2017_12_15_1946,
"[2.8, 2.8]",1,0,23,23,12,,,,,22,0,22,0,down,0.675448167196,RAA,f,22,59.9999526353,Set,2017_12_15_1946,
"[2.8, 2.8]",1,0,23,23,12,,,,,23,0,23,0,down,0.442120175983,RAA,f,22,59.9999526353,Set,2017_12_15_1946,
"[2.8, 2.8]",2,0,24,24,13,,,,,0,0,0,0,down,0.766901352297,RAA,f,22,59.9999526353,Set,2017_12_15_1946,
"[2.8, 2.8]",2,0,24,24,13,,,,,1,0,1,0,down,0.475456298824,RAA,f,22,59.9999526353,Set,2017_12_15_1946,
"[3.0, 3.0]",2,0,25,25,25,,,,,0,0,0,0,left,1.1502030144,RAA,f,22,59.9999526353,Set,2017_12_15_1946,
"[3.0, 3.0]",2,0,25,25,25,,,,,1,0,1,0,left,0.392113425944,RAA,f,22,59.9999526353,Set,2017_12_15_1946,
"[3.0, 3.0]",2,0,25,25,25,,,,,2,0,2,0,down,0.425445601373,RAA,f,22,59.9999526353,Set,2017_12_15_1946,
"[3.0, 3.0]",2,0,25,25,25,,,,,3,0,3,0,left,0.458840935084,RAA,f,22,59.9999526353,Set,2017_12_15_1946,
"[3.0, 3.0]",2,0,25,25,25,,,,,4,0,4,0,down,0.475484720024,RAA,f,22,59.9999526353,Set,2017_12_15_1946,
"[3.0, 3.0]",2,0,25,25,25,,,,,5,0,5,0,down,0.475450377737,RAA,f,22,59.9999526353,Set,2017_12_15_1946,
"[2.7, 2.7]",6,0,26,26,11,,,,,0,0,0,0,left,0.625283126719,RAA,f,22,59.9999526353,Set,2017_12_15_1946,
"[2.7, 2.7]",6,0,26,26,11,,,,,1,0,1,0,left,0.725466364675,RAA,f,22,59.9999526353,Set,2017_12_15_1946,
"[2.7, 2.7]",6,0,26,26,11,,,,,2,0,2,0,left,0.458804224327,RAA,f,22,59.9999526353,Set,2017_12_15_1946,
"[2.7, 2.7]",6,0,26,26,11,,,,,3,0,3,0,down,0.542121044418,RAA,f,22,59.9999526353,Set,2017_12_15_1946,
"[2.7, 2.7]",6,0,26,26,11,,,,,4,0,4,0,left,0.542098149541,RAA,f,22,59.9999526353,Set,2017_12_15_1946,
"[2.7, 2.7]",6,0,26,26,11,,,,,5,0,5,0,down,0.592120294401,RAA,f,22,59.9999526353,Set,2017_12_15_1946,
"[2.7, 2.7]",6,0,26,26,11,,,,,6,0,6,0,left,0.442133597127,RAA,f,22,59.9999526353,Set,2017_12_15_1946,
"[2.7, 2.7]",6,0,26,26,11,,,,,7,0,7,0,left,0.325458548818,RAA,f,22,59.9999526353,Set,2017_12_15_1946,
"[2.7, 2.7]",6,0,26,26,11,,,,,8,0,8,0,down,0.492123373377,RAA,f,22,59.9999526353,Set,2017_12_15_1946,
"[2.7, 2.7]",6,0,26,26,11,,,,,9,0,9,0,left,0.525473312096,RAA,f,22,59.9999526353,Set,2017_12_15_1946,
"[2.7, 2.7]",6,0,26,26,11,,,,,10,0,10,0,down,0.44211228122,RAA,f,22,59.9999526353,Set,2017_12_15_1946,
"[2.7, 2.7]",6,0,26,26,11,,,,,11,0,11,0,left,0.492130478669,RAA,f,22,59.9999526353,Set,2017_12_15_1946,
"[2.7, 2.7]",6,0,26,26,11,,,,,12,0,12,0,down,0.458792776917,RAA,f,22,59.9999526353,Set,2017_12_15_1946,
"[2.7, 2.7]",6,0,26,26,11,,,,,13,0,13,0,left,0.492123373377,RAA,f,22,59.9999526353,Set,2017_12_15_1946,
"[2.7, 2.7]",6,0,26,26,11,,,,,14,0,14,0,down,0.408793526905,RAA,f,22,59.9999526353,Set,2017_12_15_1946,
"[2.7, 2.7]",6,0,26,26,11,,,,,15,0,15,0,down,0.342118912813,RAA,f,22,59.9999526353,Set,2017_12_15_1946,
"[2.7, 2.7]",2,0,27,27,7,,,,,0,0,0,0,left,0.575480456871,RAA,f,22,59.9999526353,Set,2017_12_15_1946,
"[2.7, 2.7]",2,0,27,27,7,,,,,1,0,1,0,down,0.558790092677,RAA,f,22,59.9999526353,Set,2017_12_15_1946,
"[2.7, 2.7]",2,0,27,27,7,,,,,2,0,2,0,down,0.408739842387,RAA,f,22,59.9999526353,Set,2017_12_15_1946,
"[2.6, 2.6]",1,0,28,28,0,,,,,0,0,0,0,down,0.76692385241,RAA,f,22,59.9999526353,Set,2017_12_15_1946,
"[2.6, 2.6]",1,0,28,28,0,,,,,1,0,1,0,left,0.792107820656,RAA,f,22,59.9999526353,Set,2017_12_15_1946,
"[2.6, 2.6]",1,0,28,28,0,,,,,2,0,2,0,left,0.425443232933,RAA,f,22,59.9999526353,Set,2017_12_15_1946,
"[2.6, 2.6]",1,0,28,28,0,,,,,3,0,3,0,down,0.375281745131,RAA,f,22,59.9999526353,Set,2017_12_15_1946,
"[2.6, 2.6]",1,0,28,28,0,,,,,4,0,4,0,left,0.358807303302,RAA,f,22,59.9999526353,Set,2017_12_15_1946,
"[2.6, 2.6]",1,0,28,28,0,,,,,5,0,5,0,left,0.475468140998,RAA,f,22,59.9999526353,Set,2017_12_15_1946,
"[2.6, 2.6]",1,0,28,28,0,,,,,6,0,6,0,left,0.408614315296,RAA,f,22,59.9999526353,Set,2017_12_15_1946,
"[2.6, 2.6]",1,0,28,28,0,,,,,7,0,7,0,down,0.642128623411,RAA,f,22,59.9999526353,Set,2017_12_15_1946,
"[2.6, 2.6]",1,0,28,28,0,,,,,8,0,8,0,left,0.475433798681,RAA,f,22,59.9999526353,Set,2017_12_15_1946,
"[2.6, 2.6]",1,0,28,28,0,,,,,9,0,9,0,down,0.408799842728,RAA,f,22,59.9999526353,Set,2017_12_15_1946,
"[2.6, 2.6]",1,0,28,28,0,,,,,10,0,10,0,left,0.625435496069,RAA,f,22,59.9999526353,Set,2017_12_15_1946,
"[2.6, 2.6]",1,0,28,28,0,,,,,11,0,11,0,down,0.42545310143,RAA,f,22,59.9999526353,Set,2017_12_15_1946,
"[2.6, 2.6]",1,0,28,28,0,,,,,12,0,12,0,down,0.308785947913,RAA,f,22,59.9999526353,Set,2017_12_15_1946,
"[2.6, 2.6]",3,0,29,29,2,,,,,0,0,0,0,down,0.466906247049,RAA,f,22,59.9999526353,Set,2017_12_15_1946,
"[2.6, 2.6]",3,0,29,29,2,,,,,1,0,1,0,down,0.79190808261,RAA,f,22,59.9999526353,Set,2017_12_15_1946,
"[2.6, 2.6]",3,0,29,29,2,,,,,2,0,2,0,left,0.525451206689,RAA,f,22,59.9999526353,Set,2017_12_15_1946,
"[2.6, 2.6]",3,0,29,29,2,,,,,3,0,3,0,down,0.375467667298,RAA,f,22,59.9999526353,Set,2017_12_15_1946,
"[2.6, 2.6]",3,0,29,29,2,,,,,4,0,4,0,down,0.492119820701,RAA,f,22,59.9999526353,Set,2017_12_15_1946,
