size,n,trials_2.thisRepN,trials_2.thisTrialN,trials_2.thisN,trials_2.thisIndex,trials.thisRepN,trials.thisTrialN,trials.thisN,trials.thisIndex,trials_3.thisRepN,trials_3.thisTrialN,trials_3.thisN,trials_3.thisIndex,answer.keys,answer.rt,participant,gender,age,frameRate,expName,date,
"[2.8, 2.8]",4,0,0,0,15,,,,,0,0,0,0,right,0.492147847195,VS,m,34,60.0016579583,Set,2017_12_20_2033,
"[2.8, 2.8]",4,0,0,0,15,,,,,1,0,1,0,down,23.8919500039,VS,m,34,60.0016579583,Set,2017_12_20_2033,
"[2.8, 2.8]",4,0,0,0,15,,,,,2,0,2,0,down,1.0088030796,VS,m,34,60.0016579583,Set,2017_12_20_2033,
"[3.0, 3.0]",1,0,1,1,24,,,,,0,0,0,0,down,0.950197724858,VS,m,34,60.0016579583,Set,2017_12_20_2033,
"[3.0, 3.0]",1,0,1,1,24,,,,,1,0,1,0,left,1.09209424164,VS,m,34,60.0016579583,Set,2017_12_20_2033,
"[3.0, 3.0]",1,0,1,1,24,,,,,2,0,2,0,left,0.592129768105,VS,m,34,60.0016579583,Set,2017_12_20_2033,
"[3.0, 3.0]",1,0,1,1,24,,,,,3,0,3,0,left,0.808797790087,VS,m,34,60.0016579583,Set,2017_12_20_2033,
"[3.0, 3.0]",1,0,1,1,24,,,,,4,0,4,0,left,0.842129570781,VS,m,34,60.0016579583,Set,2017_12_20_2033,
"[3.0, 3.0]",1,0,1,1,24,,,,,5,0,5,0,left,2.69210261002,VS,m,34,60.0016579583,Set,2017_12_20_2033,
"[3.0, 3.0]",1,0,1,1,24,,,,,6,0,6,0,down,0.592065030942,VS,m,34,60.0016579583,Set,2017_12_20_2033,
"[3.0, 3.0]",1,0,1,1,24,,,,,7,0,7,0,down,0.592125426047,VS,m,34,60.0016579583,Set,2017_12_20_2033,
"[3.0, 3.0]",1,0,1,1,24,,,,,8,0,8,0,right,0.575472562108,VS,m,34,60.0016579583,Set,2017_12_20_2033,
"[3.0, 3.0]",1,0,1,1,24,,,,,9,0,9,0,right,0.65878069785,VS,m,34,60.0016579583,Set,2017_12_20_2033,
"[3.0, 3.0]",1,0,1,1,24,,,,,10,0,10,0,down,0.75878590846,VS,m,34,60.0016579583,Set,2017_12_20_2033,
"[3.0, 3.0]",1,0,1,1,24,,,,,11,0,11,0,right,0.525449627778,VS,m,34,60.0016579583,Set,2017_12_20_2033,
"[3.0, 3.0]",1,0,1,1,24,,,,,12,0,12,0,right,0.442112675984,VS,m,34,60.0016579583,Set,2017_12_20_2033,
"[3.0, 3.0]",1,0,1,1,24,,,,,13,0,13,0,right,0.291987425182,VS,m,34,60.0016579583,Set,2017_12_20_2033,
"[3.0, 3.0]",1,0,1,1,24,,,,,14,0,14,0,right,0.642130991793,VS,m,34,60.0016579583,Set,2017_12_20_2033,
"[3.0, 3.0]",1,0,1,1,24,,,,,15,0,15,0,right,0.492126136553,VS,m,34,60.0016579583,Set,2017_12_20_2033,
"[3.0, 3.0]",1,0,1,1,24,,,,,16,0,16,0,right,0.658769645263,VS,m,34,60.0016579583,Set,2017_12_20_2033,
"[3.0, 3.0]",1,0,1,1,24,,,,,17,0,17,0,right,0.492113110144,VS,m,34,60.0016579583,Set,2017_12_20_2033,
"[3.0, 3.0]",1,0,1,1,24,,,,,18,0,18,0,right,0.67543671967,VS,m,34,60.0016579583,Set,2017_12_20_2033,
"[3.0, 3.0]",1,0,1,1,24,,,,,19,0,19,0,right,0.458783303155,VS,m,34,60.0016579583,Set,2017_12_20_2033,
"[3.0, 3.0]",1,0,1,1,24,,,,,20,0,20,0,right,0.625446943566,VS,m,34,60.0016579583,Set,2017_12_20_2033,
"[3.0, 3.0]",1,0,1,1,24,,,,,21,0,21,0,right,0.642100202269,VS,m,34,60.0016579583,Set,2017_12_20_2033,
"[3.0, 3.0]",1,0,1,1,24,,,,,22,0,22,0,down,0.508802684839,VS,m,34,60.0016579583,Set,2017_12_20_2033,
"[3.0, 3.0]",1,0,1,1,24,,,,,23,0,23,0,right,0.858774540015,VS,m,34,60.0016579583,Set,2017_12_20_2033,
"[3.0, 3.0]",1,0,1,1,24,,,,,24,0,24,0,right,0.592128583929,VS,m,34,60.0016579583,Set,2017_12_20_2033,
"[3.0, 3.0]",1,0,1,1,24,,,,,25,0,25,0,down,0.575443746056,VS,m,34,60.0016579583,Set,2017_12_20_2033,
"[3.0, 3.0]",1,0,1,1,24,,,,,26,0,26,0,right,0.592104504933,VS,m,34,60.0016579583,Set,2017_12_20_2033,
"[3.0, 3.0]",1,0,1,1,24,,,,,27,0,27,0,right,0.775448246044,VS,m,34,60.0016579583,Set,2017_12_20_2033,
"[3.0, 3.0]",1,0,1,1,24,,,,,28,0,28,0,down,0.575491114869,VS,m,34,60.0016579583,Set,2017_12_20_2033,
"[3.0, 3.0]",1,0,1,1,24,,,,,29,0,29,0,right,0.558794434881,VS,m,34,60.0016579583,Set,2017_12_20_2033,
"[3.0, 3.0]",1,0,1,1,24,,,,,30,0,30,0,right,0.742215545033,VS,m,34,60.0016579583,Set,2017_12_20_2033,
"[3.0, 3.0]",1,0,1,1,24,,,,,31,0,31,0,down,0.458784487331,VS,m,34,60.0016579583,Set,2017_12_20_2033,
"[3.0, 3.0]",1,0,1,1,24,,,,,32,0,32,0,down,0.942089386284,VS,m,34,60.0016579583,Set,2017_12_20_2033,
"[3.0, 3.0]",1,0,1,1,24,,,,,33,0,33,0,right,0.542140781414,VS,m,34,60.0016579583,Set,2017_12_20_2033,
"[3.0, 3.0]",1,0,1,1,24,,,,,34,0,34,0,right,1.50877663202,VS,m,34,60.0016579583,Set,2017_12_20_2033,
"[3.0, 3.0]",1,0,1,1,24,,,,,35,0,35,0,down,1.00022184337,VS,m,34,60.0016579583,Set,2017_12_20_2033,
"[3.0, 3.0]",1,0,1,1,24,,,,,36,0,36,0,right,0.558782592649,VS,m,34,60.0016579583,Set,2017_12_20_2033,
"[3.0, 3.0]",1,0,1,1,24,,,,,37,0,37,0,right,0.758768539876,VS,m,34,60.0016579583,Set,2017_12_20_2033,
"[3.0, 3.0]",1,0,1,1,24,,,,,38,0,38,0,right,0.658792540082,VS,m,34,60.0016579583,Set,2017_12_20_2033,
"[3.0, 3.0]",1,0,1,1,24,,,,,39,0,39,0,right,0.5087920269,VS,m,34,60.0016579583,Set,2017_12_20_2033,
"[3.0, 3.0]",1,0,1,1,24,,,,,40,0,40,0,right,0.908779316349,VS,m,34,60.0016579583,Set,2017_12_20_2033,
"[3.0, 3.0]",1,0,1,1,24,,,,,41,0,41,0,right,1.54210288636,VS,m,34,60.0016579583,Set,2017_12_20_2033,
"[3.0, 3.0]",1,0,1,1,24,,,,,42,0,42,0,down,0.408791947993,VS,m,34,60.0016579583,Set,2017_12_20_2033,
"[3.0, 3.0]",1,0,1,1,24,,,,,43,0,43,0,right,0.525443311897,VS,m,34,60.0016579583,Set,2017_12_20_2033,
"[3.0, 3.0]",1,0,1,1,24,,,,,44,0,44,0,down,0.608775526751,VS,m,34,60.0016579583,Set,2017_12_20_2033,
"[3.0, 3.0]",1,0,1,1,24,,,,,45,0,45,0,down,0.575468614581,VS,m,34,60.0016579583,Set,2017_12_20_2033,
"[2.6, 2.6]",1,0,2,2,0,,,,,0,0,0,0,down,0.558769171475,VS,m,34,60.0016579583,Set,2017_12_20_2033,
"[2.6, 2.6]",1,0,2,2,0,,,,,1,0,1,0,down,1.7921042681,VS,m,34,60.0016579583,Set,2017_12_20_2033,
"[2.9, 2.9]",4,0,3,3,21,,,,,0,0,0,0,left,0.50876044773,VS,m,34,60.0016579583,Set,2017_12_20_2033,
"[2.9, 2.9]",4,0,3,3,21,,,,,1,0,1,0,left,0.508789658546,VS,m,34,60.0016579583,Set,2017_12_20_2033,
"[2.9, 2.9]",4,0,3,3,21,,,,,2,0,2,0,left,0.708796921652,VS,m,34,60.0016579583,Set,2017_12_20_2033,
"[2.9, 2.9]",4,0,3,3,21,,,,,3,0,3,0,left,0.642112439149,VS,m,34,60.0016579583,Set,2017_12_20_2033,
"[2.9, 2.9]",4,0,3,3,21,,,,,4,0,4,0,left,0.642166123609,VS,m,34,60.0016579583,Set,2017_12_20_2033,
"[2.9, 2.9]",4,0,3,3,21,,,,,5,0,5,0,left,0.692094715312,VS,m,34,60.0016579583,Set,2017_12_20_2033,
"[2.9, 2.9]",4,0,3,3,21,,,,,6,0,6,0,left,0.458818829735,VS,m,34,60.0016579583,Set,2017_12_20_2033,
"[2.9, 2.9]",4,0,3,3,21,,,,,7,0,7,0,down,0.508776632138,VS,m,34,60.0016579583,Set,2017_12_20_2033,
"[2.9, 2.9]",4,0,3,3,21,,,,,8,0,8,0,left,0.708782711066,VS,m,34,60.0016579583,Set,2017_12_20_2033,
"[2.9, 2.9]",4,0,3,3,21,,,,,9,0,9,0,left,0.525396337849,VS,m,34,60.0016579583,Set,2017_12_20_2033,
"[2.9, 2.9]",4,0,3,3,21,,,,,10,0,10,0,left,0.558776671533,VS,m,34,60.0016579583,Set,2017_12_20_2033,
"[2.9, 2.9]",4,0,3,3,21,,,,,11,0,11,0,left,0.658741223859,VS,m,34,60.0016579583,Set,2017_12_20_2033,
"[2.9, 2.9]",4,0,3,3,21,,,,,12,0,12,0,left,0.758769724169,VS,m,34,60.0016579583,Set,2017_12_20_2033,
"[2.9, 2.9]",4,0,3,3,21,,,,,13,0,13,0,left,0.62544339092,VS,m,34,60.0016579583,Set,2017_12_20_2033,
"[2.9, 2.9]",4,0,3,3,21,,,,,14,0,14,0,down,0.792236900423,VS,m,34,60.0016579583,Set,2017_12_20_2033,
"[2.9, 2.9]",4,0,3,3,21,,,,,15,0,15,0,left,0.525463048834,VS,m,34,60.0016579583,Set,2017_12_20_2033,
"[2.9, 2.9]",4,0,3,3,21,,,,,16,0,16,0,left,0.558824434993,VS,m,34,60.0016579583,Set,2017_12_20_2033,
"[2.9, 2.9]",4,0,3,3,21,,,,,17,0,17,0,left,0.608783026924,VS,m,34,60.0016579583,Set,2017_12_20_2033,
"[2.9, 2.9]",4,0,3,3,21,,,,,18,0,18,0,left,0.825485391077,VS,m,34,60.0016579583,Set,2017_12_20_2033,
"[2.9, 2.9]",4,0,3,3,21,,,,,19,0,19,0,left,0.742150018224,VS,m,34,60.0016579583,Set,2017_12_20_2033,
"[2.9, 2.9]",4,0,3,3,21,,,,,20,0,20,0,left,0.65878701373,VS,m,34,60.0016579583,Set,2017_12_20_2033,
"[2.9, 2.9]",4,0,3,3,21,,,,,21,0,21,0,left,0.242177255335,VS,m,34,60.0016579583,Set,2017_12_20_2033,
"[2.9, 2.9]",4,0,3,3,21,,,,,22,0,22,0,left,0.375453851419,VS,m,34,60.0016579583,Set,2017_12_20_2033,
"[2.9, 2.9]",4,0,3,3,21,,,,,23,0,23,0,left,0.308763053035,VS,m,34,60.0016579583,Set,2017_12_20_2033,
"[2.9, 2.9]",4,0,3,3,21,,,,,24,0,24,0,left,0.258797355811,VS,m,34,60.0016579583,Set,2017_12_20_2033,
"[2.9, 2.9]",4,0,3,3,21,,,,,25,0,25,0,left,0.342137465603,VS,m,34,60.0016579583,Set,2017_12_20_2033,
"[2.9, 2.9]",4,0,3,3,21,,,,,26,0,26,0,left,0.342121676076,VS,m,34,60.0016579583,Set,2017_12_20_2033,
"[2.9, 2.9]",4,0,3,3,21,,,,,27,0,27,0,left,0.342109044315,VS,m,34,60.0016579583,Set,2017_12_20_2033,
"[2.9, 2.9]",4,0,3,3,21,,,,,28,0,28,0,left,0.392191189574,VS,m,34,60.0016579583,Set,2017_12_20_2033,
"[2.9, 2.9]",4,0,3,3,21,,,,,29,0,29,0,down,0.842269308516,VS,m,34,60.0016579583,Set,2017_12_20_2033,
"[2.9, 2.9]",4,0,3,3,21,,,,,30,0,30,0,left,0.342060491443,VS,m,34,60.0016579583,Set,2017_12_20_2033,
"[2.9, 2.9]",4,0,3,3,21,,,,,31,0,31,0,left,0.342118912842,VS,m,34,60.0016579583,Set,2017_12_20_2033,
"[2.9, 2.9]",4,0,3,3,21,,,,,32,0,32,0,left,0.325507891132,VS,m,34,60.0016579583,Set,2017_12_20_2033,
"[2.9, 2.9]",4,0,3,3,21,,,,,33,0,33,0,left,0.25880682969,VS,m,34,60.0016579583,Set,2017_12_20_2033,
"[2.9, 2.9]",4,0,3,3,21,,,,,34,0,34,0,left,0.392176978989,VS,m,34,60.0016579583,Set,2017_12_20_2033,
"[2.9, 2.9]",4,0,3,3,21,,,,,35,0,35,0,left,0.292113741743,VS,m,34,60.0016579583,Set,2017_12_20_2033,
"[2.9, 2.9]",4,0,3,3,21,,,,,36,0,36,0,left,0.34212799184,VS,m,34,60.0016579583,Set,2017_12_20_2033,
"[2.9, 2.9]",4,0,3,3,21,,,,,37,0,37,0,left,0.375516220229,VS,m,34,60.0016579583,Set,2017_12_20_2033,
"[2.9, 2.9]",4,0,3,3,21,,,,,38,0,38,0,left,0.608635394368,VS,m,34,60.0016579583,Set,2017_12_20_2033,
"[2.9, 2.9]",4,0,3,3,21,,,,,39,0,39,0,left,0.242112912703,VS,m,34,60.0016579583,Set,2017_12_20_2033,
"[2.9, 2.9]",4,0,3,3,21,,,,,40,0,40,0,left,0.525451996131,VS,m,34,60.0016579583,Set,2017_12_20_2033,
"[2.9, 2.9]",4,0,3,3,21,,,,,41,0,41,0,left,0.858801382245,VS,m,34,60.0016579583,Set,2017_12_20_2033,
"[2.9, 2.9]",4,0,3,3,21,,,,,42,0,42,0,left,0.475436561857,VS,m,34,60.0016579583,Set,2017_12_20_2033,
"[2.9, 2.9]",4,0,3,3,21,,,,,43,0,43,0,left,0.542140386533,VS,m,34,60.0016579583,Set,2017_12_20_2033,
"[2.9, 2.9]",4,0,3,3,21,,,,,44,0,44,0,left,0.308806474437,VS,m,34,60.0016579583,Set,2017_12_20_2033,
"[2.9, 2.9]",4,0,3,3,21,,,,,45,0,45,0,down,0.408796290052,VS,m,34,60.0016579583,Set,2017_12_20_2033,
"[2.9, 2.9]",4,0,3,3,21,,,,,46,0,46,0,left,0.958800276858,VS,m,34,60.0016579583,Set,2017_12_20_2033,
"[2.9, 2.9]",4,0,3,3,21,,,,,47,0,47,0,down,0.408796684816,VS,m,34,60.0016579583,Set,2017_12_20_2033,
"[2.9, 2.9]",4,0,3,3,21,,,,,48,0,48,0,down,0.675495535834,VS,m,34,60.0016579583,Set,2017_12_20_2033,
"[2.6, 2.6]",4,0,4,4,3,,,,,0,0,0,0,left,0.483562663663,VS,m,34,60.0016579583,Set,2017_12_20_2033,
"[2.6, 2.6]",4,0,4,4,3,,,,,1,0,1,0,down,0.708842711523,VS,m,34,60.0016579583,Set,2017_12_20_2033,
"[2.6, 2.6]",4,0,4,4,3,,,,,2,0,2,0,down,0.425398232765,VS,m,34,60.0016579583,Set,2017_12_20_2033,
"[2.7, 2.7]",4,0,5,5,9,,,,,0,0,0,0,left,0.483622269356,VS,m,34,60.0016579583,Set,2017_12_20_2033,
"[2.7, 2.7]",4,0,5,5,9,,,,,1,0,1,0,down,0.425450732931,VS,m,34,60.0016579583,Set,2017_12_20_2033,
"[2.7, 2.7]",4,0,5,5,9,,,,,2,0,2,0,down,0.358802566421,VS,m,34,60.0016579583,Set,2017_12_20_2033,
"[2.9, 2.9]",3,0,6,6,20,,,,,0,0,0,0,left,0.458793566329,VS,m,34,60.0016579583,Set,2017_12_20_2033,
"[2.9, 2.9]",3,0,6,6,20,,,,,1,0,1,0,down,0.525446075015,VS,m,34,60.0016579583,Set,2017_12_20_2033,
"[2.9, 2.9]",3,0,6,6,20,,,,,2,0,2,0,down,0.275451009395,VS,m,34,60.0016579583,Set,2017_12_20_2033,
"[2.9, 2.9]",5,0,7,7,22,,,,,0,0,0,0,left,0.383581532165,VS,m,34,60.0016579583,Set,2017_12_20_2033,
"[2.9, 2.9]",5,0,7,7,22,,,,,1,0,1,0,down,0.642107307445,VS,m,34,60.0016579583,Set,2017_12_20_2033,
"[2.9, 2.9]",5,0,7,7,22,,,,,2,0,2,0,down,0.30877805315,VS,m,34,60.0016579583,Set,2017_12_20_2033,
"[3.0, 3.0]",3,0,8,8,26,,,,,0,0,0,0,left,0.433410254889,VS,m,34,60.0016579583,Set,2017_12_20_2033,
"[3.0, 3.0]",3,0,8,8,26,,,,,1,0,1,0,down,0.366903010174,VS,m,34,60.0016579583,Set,2017_12_20_2033,
"[3.0, 3.0]",3,0,8,8,26,,,,,2,0,2,0,left,0.392111452296,VS,m,34,60.0016579583,Set,2017_12_20_2033,
"[3.0, 3.0]",3,0,8,8,26,,,,,3,0,3,0,down,0.508839790244,VS,m,34,60.0016579583,Set,2017_12_20_2033,
"[3.0, 3.0]",3,0,8,8,26,,,,,4,0,4,0,left,0.292090452043,VS,m,34,60.0016579583,Set,2017_12_20_2033,
"[3.0, 3.0]",3,0,8,8,26,,,,,5,0,5,0,left,0.558780224179,VS,m,34,60.0016579583,Set,2017_12_20_2033,
"[3.0, 3.0]",3,0,8,8,26,,,,,6,0,6,0,down,0.475466562086,VS,m,34,60.0016579583,Set,2017_12_20_2033,
"[3.0, 3.0]",3,0,8,8,26,,,,,7,0,7,0,left,0.292112162686,VS,m,34,60.0016579583,Set,2017_12_20_2033,
"[3.0, 3.0]",3,0,8,8,26,,,,,8,0,8,0,left,0.342127202312,VS,m,34,60.0016579583,Set,2017_12_20_2033,
"[3.0, 3.0]",3,0,8,8,26,,,,,9,0,9,0,left,0.392213689745,VS,m,34,60.0016579583,Set,2017_12_20_2033,
"[3.0, 3.0]",3,0,8,8,26,,,,,10,0,10,0,down,0.408818000695,VS,m,34,60.0016579583,Set,2017_12_20_2033,
"[3.0, 3.0]",3,0,8,8,26,,,,,11,0,11,0,down,0.408799448051,VS,m,34,60.0016579583,Set,2017_12_20_2033,
"[3.0, 3.0]",2,0,9,9,25,,,,,0,0,0,0,left,0.425452706637,VS,m,34,60.0016579583,Set,2017_12_20_2033,
"[3.0, 3.0]",2,0,9,9,25,,,,,1,0,1,0,down,0.558788513765,VS,m,34,60.0016579583,Set,2017_12_20_2033,
"[3.0, 3.0]",2,0,9,9,25,,,,,2,0,2,0,down,0.342126018135,VS,m,34,60.0016579583,Set,2017_12_20_2033,
"[3.0, 3.0]",2,0,9,9,25,,,,,3,0,3,0,left,0.208800869063,VS,m,34,60.0016579583,Set,2017_12_20_2033,
"[3.0, 3.0]",2,0,9,9,25,,,,,4,0,4,0,down,0.742126728641,VS,m,34,60.0016579583,Set,2017_12_20_2033,
"[3.0, 3.0]",2,0,9,9,25,,,,,5,0,5,0,left,0.658798461081,VS,m,34,60.0016579583,Set,2017_12_20_2033,
"[3.0, 3.0]",2,0,9,9,25,,,,,6,0,6,0,down,0.425448759343,VS,m,34,60.0016579583,Set,2017_12_20_2033,
"[3.0, 3.0]",2,0,9,9,25,,,,,7,0,7,0,down,0.358804145362,VS,m,34,60.0016579583,Set,2017_12_20_2033,
"[3.0, 3.0]",2,0,9,9,25,,,,,8,0,8,0,left,0.442135570804,VS,m,34,60.0016579583,Set,2017_12_20_2033,
"[3.0, 3.0]",2,0,9,9,25,,,,,9,0,9,0,left,0.325471969903,VS,m,34,60.0016579583,Set,2017_12_20_2033,
"[3.0, 3.0]",2,0,9,9,25,,,,,10,0,10,0,left,0.492121399613,VS,m,34,60.0016579583,Set,2017_12_20_2033,
"[3.0, 3.0]",2,0,9,9,25,,,,,11,0,11,0,left,0.408793526818,VS,m,34,60.0016579583,Set,2017_12_20_2033,
"[3.0, 3.0]",2,0,9,9,25,,,,,12,0,12,0,left,0.492121794377,VS,m,34,60.0016579583,Set,2017_12_20_2033,
"[3.0, 3.0]",2,0,9,9,25,,,,,13,0,13,0,down,0.275459693512,VS,m,34,60.0016579583,Set,2017_12_20_2033,
"[3.0, 3.0]",2,0,9,9,25,,,,,14,0,14,0,down,0.458765145158,VS,m,34,60.0016579583,Set,2017_12_20_2033,
"[3.0, 3.0]",6,0,10,10,29,,,,,0,0,0,0,down,1.30880015856,VS,m,34,60.0016579583,Set,2017_12_20_2033,
"[3.0, 3.0]",6,0,10,10,29,,,,,1,0,1,0,down,0.625468654092,VS,m,34,60.0016579583,Set,2017_12_20_2033,
"[2.9, 2.9]",6,0,11,11,23,,,,,0,0,0,0,down,1.68357821635,VS,m,34,60.0016579583,Set,2017_12_20_2033,
"[2.9, 2.9]",6,0,11,11,23,,,,,1,0,1,0,down,0.392124873353,VS,m,34,60.0016579583,Set,2017_12_20_2033,
"[3.0, 3.0]",4,0,12,12,27,,,,,0,0,0,0,down,3.15871832916,VS,m,34,60.0016579583,Set,2017_12_20_2033,
"[3.0, 3.0]",4,0,12,12,27,,,,,1,0,1,0,down,0.70877678995,VS,m,34,60.0016579583,Set,2017_12_20_2033,
"[3.0, 3.0]",4,0,12,12,27,,,,,2,0,2,0,left,0.542100912658,VS,m,34,60.0016579583,Set,2017_12_20_2033,
"[3.0, 3.0]",4,0,12,12,27,,,,,3,0,3,0,down,0.458797908504,VS,m,34,60.0016579583,Set,2017_12_20_2033,
"[3.0, 3.0]",4,0,12,12,27,,,,,4,0,4,0,left,0.408806553343,VS,m,34,60.0016579583,Set,2017_12_20_2033,
"[3.0, 3.0]",4,0,12,12,27,,,,,5,0,5,0,down,0.458790408447,VS,m,34,60.0016579583,Set,2017_12_20_2033,
"[3.0, 3.0]",4,0,12,12,27,,,,,6,0,6,0,left,0.575433482882,VS,m,34,60.0016579583,Set,2017_12_20_2033,
"[3.0, 3.0]",4,0,12,12,27,,,,,7,0,7,0,left,0.408625368029,VS,m,34,60.0016579583,Set,2017_12_20_2033,
"[3.0, 3.0]",4,0,12,12,27,,,,,8,0,8,0,left,0.342126807547,VS,m,34,60.0016579583,Set,2017_12_20_2033,
"[3.0, 3.0]",4,0,12,12,27,,,,,9,0,9,0,down,0.375477930531,VS,m,34,60.0016579583,Set,2017_12_20_2033,
"[3.0, 3.0]",4,0,12,12,27,,,,,10,0,10,0,down,0.392113425885,VS,m,34,60.0016579583,Set,2017_12_20_2033,
"[2.9, 2.9]",1,0,13,13,18,,,,,0,0,0,0,left,2.6421057285,VS,m,34,60.0016579583,Set,2017_12_20_2033,
"[2.9, 2.9]",1,0,13,13,18,,,,,1,0,1,0,left,0.575504141161,VS,m,34,60.0016579583,Set,2017_12_20_2033,
"[2.9, 2.9]",1,0,13,13,18,,,,,2,0,2,0,down,0.525469759363,VS,m,34,60.0016579583,Set,2017_12_20_2033,
"[2.9, 2.9]",1,0,13,13,18,,,,,3,0,3,0,down,0.392069215071,VS,m,34,60.0016579583,Set,2017_12_20_2033,
"[2.8, 2.8]",6,0,14,14,17,,,,,0,0,0,0,left,0.558799171704,VS,m,34,60.0016579583,Set,2017_12_20_2033,
"[2.8, 2.8]",6,0,14,14,17,,,,,1,0,1,0,left,0.658782671555,VS,m,34,60.0016579583,Set,2017_12_20_2033,
"[2.8, 2.8]",6,0,14,14,17,,,,,2,0,2,0,down,0.475442088209,VS,m,34,60.0016579583,Set,2017_12_20_2033,
"[2.8, 2.8]",6,0,14,14,17,,,,,3,0,3,0,down,0.425500864862,VS,m,34,60.0016579583,Set,2017_12_20_2033,
"[2.8, 2.8]",6,0,14,14,17,,,,,4,0,4,0,left,0.408787605818,VS,m,34,60.0016579583,Set,2017_12_20_2033,
"[2.8, 2.8]",6,0,14,14,17,,,,,5,0,5,0,down,0.375510299113,VS,m,34,60.0016579583,Set,2017_12_20_2033,
"[2.8, 2.8]",6,0,14,14,17,,,,,6,0,6,0,down,0.675463167252,VS,m,34,60.0016579583,Set,2017_12_20_2033,
"[2.6, 2.6]",5,0,15,15,4,,,,,0,0,0,0,left,0.958739881869,VS,m,34,60.0016579583,Set,2017_12_20_2033,
"[2.6, 2.6]",5,0,15,15,4,,,,,1,0,1,0,down,0.541955254041,VS,m,34,60.0016579583,Set,2017_12_20_2033,
"[2.6, 2.6]",5,0,15,15,4,,,,,2,0,2,0,down,0.325475127902,VS,m,34,60.0016579583,Set,2017_12_20_2033,
"[2.8, 2.8]",1,0,16,16,12,,,,,0,0,0,0,left,1.05879877694,VS,m,34,60.0016579583,Set,2017_12_20_2033,
"[2.8, 2.8]",1,0,16,16,12,,,,,1,0,1,0,down,0.275418640696,VS,m,34,60.0016579583,Set,2017_12_20_2033,
"[2.8, 2.8]",1,0,16,16,12,,,,,2,0,2,0,down,0.308797790087,VS,m,34,60.0016579583,Set,2017_12_20_2033,
"[2.7, 2.7]",6,0,17,17,11,,,,,0,0,0,0,left,1.00878492149,VS,m,34,60.0016579583,Set,2017_12_20_2033,
"[2.7, 2.7]",6,0,17,17,11,,,,,1,0,1,0,down,0.425470864633,VS,m,34,60.0016579583,Set,2017_12_20_2033,
"[2.7, 2.7]",6,0,17,17,11,,,,,2,0,2,0,down,0.408769842586,VS,m,34,60.0016579583,Set,2017_12_20_2033,
"[2.8, 2.8]",5,0,18,18,16,,,,,0,0,0,0,down,0.633528439794,VS,m,34,60.0016579583,Set,2017_12_20_2033,
"[2.8, 2.8]",5,0,18,18,16,,,,,1,0,1,0,down,0.492113899672,VS,m,34,60.0016579583,Set,2017_12_20_2033,
"[2.8, 2.8]",3,0,19,19,14,,,,,0,0,0,0,down,0.641905990429,VS,m,34,60.0016579583,Set,2017_12_20_2033,
"[2.8, 2.8]",3,0,19,19,14,,,,,1,0,1,0,left,0.442120570689,VS,m,34,60.0016579583,Set,2017_12_20_2033,
"[2.8, 2.8]",3,0,19,19,14,,,,,2,0,2,0,down,0.358791118953,VS,m,34,60.0016579583,Set,2017_12_20_2033,
"[2.8, 2.8]",3,0,19,19,14,,,,,3,0,3,0,down,0.308798579616,VS,m,34,60.0016579583,Set,2017_12_20_2033,
"[2.8, 2.8]",3,0,19,19,14,,,,,4,0,4,0,left,0.425460601458,VS,m,34,60.0016579583,Set,2017_12_20_2033,
"[2.8, 2.8]",3,0,19,19,14,,,,,5,0,5,0,left,0.55879877694,VS,m,34,60.0016579583,Set,2017_12_20_2033,
"[2.8, 2.8]",3,0,19,19,14,,,,,6,0,6,0,down,0.258797355928,VS,m,34,60.0016579583,Set,2017_12_20_2033,
"[2.8, 2.8]",3,0,19,19,14,,,,,7,0,7,0,down,0.275462456746,VS,m,34,60.0016579583,Set,2017_12_20_2033,
"[2.7, 2.7]",5,0,20,20,10,,,,,0,0,0,0,down,0.475462614675,VS,m,34,60.0016579583,Set,2017_12_20_2033,
"[2.7, 2.7]",5,0,20,20,10,,,,,1,0,1,0,down,0.442109517986,VS,m,34,60.0016579583,Set,2017_12_20_2033,
"[2.7, 2.7]",5,0,20,20,10,,,,,2,0,2,0,right,0.383574426873,VS,m,34,60.0016579583,Set,2017_12_20_2033,
"[2.7, 2.7]",5,0,20,20,10,,,,,3,0,3,0,down,0.592168452567,VS,m,34,60.0016579583,Set,2017_12_20_2033,
"[2.7, 2.7]",5,0,20,20,10,,,,,4,0,4,0,down,0.658767671557,VS,m,34,60.0016579583,Set,2017_12_20_2033,
"[2.6, 2.6]",3,0,21,21,2,,,,,0,0,0,0,down,0.383571663755,VS,m,34,60.0016579583,Set,2017_12_20_2033,
"[2.6, 2.6]",3,0,21,21,2,,,,,1,0,1,0,down,0.425456654048,VS,m,34,60.0016579583,Set,2017_12_20_2033,
"[2.7, 2.7]",3,0,22,22,8,,,,,0,0,0,0,down,0.400222159224,VS,m,34,60.0016579583,Set,2017_12_20_2033,
"[2.7, 2.7]",3,0,22,22,8,,,,,1,0,1,0,down,0.358801382245,VS,m,34,60.0016579583,Set,2017_12_20_2033,
"[2.9, 2.9]",2,0,23,23,19,,,,,0,0,0,0,down,0.375434114481,VS,m,34,60.0016579583,Set,2017_12_20_2033,
"[2.9, 2.9]",2,0,23,23,19,,,,,1,0,1,0,down,0.342153255129,VS,m,34,60.0016579583,Set,2017_12_20_2033,
"[2.6, 2.6]",6,0,24,24,5,,,,,0,0,0,0,right,0.892132768175,VS,m,34,60.0016579583,Set,2017_12_20_2033,
"[2.6, 2.6]",6,0,24,24,5,,,,,1,0,1,0,down,0.32543644344,VS,m,34,60.0016579583,Set,2017_12_20_2033,
"[2.6, 2.6]",6,0,24,24,5,,,,,2,0,2,0,down,0.342121676076,VS,m,34,60.0016579583,Set,2017_12_20_2033,
"[2.7, 2.7]",1,0,25,25,6,,,,,0,0,0,0,down,0.625465890975,VS,m,34,60.0016579583,Set,2017_12_20_2033,
"[2.7, 2.7]",1,0,25,25,6,,,,,1,0,1,0,down,0.642121518147,VS,m,34,60.0016579583,Set,2017_12_20_2033,
"[2.8, 2.8]",2,0,26,26,13,,,,,0,0,0,0,down,0.333542808192,VS,m,34,60.0016579583,Set,2017_12_20_2033,
"[2.8, 2.8]",2,0,26,26,13,,,,,1,0,1,0,down,0.275455746218,VS,m,34,60.0016579583,Set,2017_12_20_2033,
"[2.7, 2.7]",2,0,27,27,7,,,,,0,0,0,0,down,0.425455864635,VS,m,34,60.0016579583,Set,2017_12_20_2033,
"[2.7, 2.7]",2,0,27,27,7,,,,,1,0,1,0,down,0.342140623485,VS,m,34,60.0016579583,Set,2017_12_20_2033,
"[2.6, 2.6]",2,0,28,28,1,,,,,0,0,0,0,down,0.38355903211,VS,m,34,60.0016579583,Set,2017_12_20_2033,
"[2.6, 2.6]",2,0,28,28,1,,,,,1,0,1,0,down,0.308785947855,VS,m,34,60.0016579583,Set,2017_12_20_2033,
"[3.0, 3.0]",5,0,29,29,28,,,,,0,0,0,0,left,0.458875277312,VS,m,34,60.0016579583,Set,2017_12_20_2033,
"[3.0, 3.0]",5,0,29,29,28,,,,,1,0,1,0,left,0.375472798944,VS,m,34,60.0016579583,Set,2017_12_20_2033,
"[3.0, 3.0]",5,0,29,29,28,,,,,2,0,2,0,left,0.475480772671,VS,m,34,60.0016579583,Set,2017_12_20_2033,
"[3.0, 3.0]",5,0,29,29,28,,,,,3,0,3,0,down,0.37545543036,VS,m,34,60.0016579583,Set,2017_12_20_2033,
"[3.0, 3.0]",5,0,29,29,28,,,,,4,0,4,0,down,0.442110702279,VS,m,34,60.0016579583,Set,2017_12_20_2033,
"[3.0, 3.0]",5,0,29,29,28,,,,,5,0,5,0,left,0.40879313217,VS,m,34,60.0016579583,Set,2017_12_20_2033,
"[3.0, 3.0]",5,0,29,29,28,,,,,6,0,6,0,down,0.29215282097,VS,m,34,60.0016579583,Set,2017_12_20_2033,
"[3.0, 3.0]",5,0,29,29,28,,,,,7,0,7,0,left,0.458823566558,VS,m,34,60.0016579583,Set,2017_12_20_2033,
"[3.0, 3.0]",5,0,29,29,28,,,,,8,0,8,0,left,0.308785553207,VS,m,34,60.0016579583,Set,2017_12_20_2033,
"[3.0, 3.0]",5,0,29,29,28,,,,,9,0,9,0,left,0.342139044544,VS,m,34,60.0016579583,Set,2017_12_20_2033,
"[3.0, 3.0]",5,0,29,29,28,,,,,10,0,10,0,left,0.342175360536,VS,m,34,60.0016579583,Set,2017_12_20_2033,
"[3.0, 3.0]",5,0,29,29,28,,,,,11,0,11,0,left,0.3587887506,VS,m,34,60.0016579583,Set,2017_12_20_2033,
"[3.0, 3.0]",5,0,29,29,28,,,,,12,0,12,0,down,0.442103202222,VS,m,34,60.0016579583,Set,2017_12_20_2033,
"[3.0, 3.0]",5,0,29,29,28,,,,,13,0,13,0,down,0.275446667103,VS,m,34,60.0016579583,Set,2017_12_20_2033,
